%time,field.header.seq,field.header.stamp,field.header.frame_id,field.orientation.x,field.orientation.y,field.orientation.z,field.orientation.w,field.orientation_covariance0,field.orientation_covariance1,field.orientation_covariance2,field.orientation_covariance3,field.orientation_covariance4,field.orientation_covariance5,field.orientation_covariance6,field.orientation_covariance7,field.orientation_covariance8,field.angular_velocity.x,field.angular_velocity.y,field.angular_velocity.z,field.angular_velocity_covariance0,field.angular_velocity_covariance1,field.angular_velocity_covariance2,field.angular_velocity_covariance3,field.angular_velocity_covariance4,field.angular_velocity_covariance5,field.angular_velocity_covariance6,field.angular_velocity_covariance7,field.angular_velocity_covariance8,field.linear_acceleration.x,field.linear_acceleration.y,field.linear_acceleration.z,field.linear_acceleration_covariance0,field.linear_acceleration_covariance1,field.linear_acceleration_covariance2,field.linear_acceleration_covariance3,field.linear_acceleration_covariance4,field.linear_acceleration_covariance5,field.linear_acceleration_covariance6,field.linear_acceleration_covariance7,field.linear_acceleration_covariance8
2767050000000,1747,2767050000000,base_link,0.00929654893051,-0.0116135180914,0.0191620225286,-0.999705755736,1.0,0.0,0.0,0.0,1.0,0.0,0.0,0.0,1.0,0.00188062305097,-0.000283216795651,-0.00111421535257,1.21846967915e-07,0.0,0.0,0.0,1.21846967915e-07,0.0,0.0,0.0,1.21846967915e-07,-0.230043172836,-0.195315539837,9.84930038452,9e-08,0.0,0.0,0.0,9e-08,0.0,0.0,0.0,9e-08
2767070000000,1748,2767070000000,base_link,0.00926987804257,-0.0116772176199,0.0191771953941,-0.999704912799,1.0,0.0,0.0,0.0,1.0,0.0,0.0,0.0,1.0,0.00481039425358,0.000407224637456,-0.000620007805992,1.21846967915e-07,0.0,0.0,0.0,1.21846967915e-07,0.0,0.0,0.0,1.21846967915e-07,-0.293606132269,-0.152797728777,9.78567123413,9e-08,0.0,0.0,0.0,9e-08,0.0,0.0,0.0,9e-08
2767090000000,1749,2767090000000,base_link,0.00929097492747,-0.0116673278454,0.0191627390251,-0.999705123534,1.0,0.0,0.0,0.0,1.0,0.0,0.0,0.0,1.0,-0.00233327783644,-0.00856366381049,0.00324215460569,1.21846967915e-07,0.0,0.0,0.0,1.21846967915e-07,0.0,0.0,0.0,1.21846967915e-07,-0.228136926889,-0.168345570564,9.75978565216,9e-08,0.0,0.0,0.0,9e-08,0.0,0.0,0.0,9e-08
2767110000000,1750,2767106000000,base_link,0.0092863819088,-0.0116593018343,0.01916080027,-0.999705292121,1.0,0.0,0.0,0.0,1.0,0.0,0.0,0.0,1.0,0.00279273930937,-0.00637881830335,0.000433452893049,1.21846967915e-07,0.0,0.0,0.0,1.21846967915e-07,0.0,0.0,0.0,1.21846967915e-07,-0.271731317043,-0.184917911887,9.7617816925,9e-08,0.0,0.0,0.0,9e-08,0.0,0.0,0.0,9e-08
2767130000000,1751,2767130000000,base_link,0.00928804218182,-0.011666190786,0.0191626968782,-0.99970516568,1.0,0.0,0.0,0.0,1.0,0.0,0.0,0.0,1.0,0.00228792708367,-0.00518624531105,0.00166194548365,1.21846967915e-07,0.0,0.0,0.0,1.21846967915e-07,0.0,0.0,0.0,1.21846967915e-07,-0.270553052425,-0.207316592336,9.79924106598,9e-08,0.0,0.0,0.0,9e-08,0.0,0.0,0.0,9e-08
2767150000000,1752,2767150000000,base_link,0.00928999805901,-0.0116610159433,0.0191809464636,-0.999704870652,1.0,0.0,0.0,0.0,1.0,0.0,0.0,0.0,1.0,-0.000158997092512,-0.0059345792979,-0.000189831014723,1.21846967915e-07,0.0,0.0,0.0,1.21846967915e-07,0.0,0.0,0.0,1.21846967915e-07,-0.221141517162,-0.201050102711,9.76091384888,9e-08,0.0,0.0,0.0,9e-08,0.0,0.0,0.0,9e-08
2767170000000,1753,2767170000000,base_link,0.0092645239934,-0.0116895443383,0.0192118822504,-0.999704196303,1.0,0.0,0.0,0.0,1.0,0.0,0.0,0.0,1.0,0.00476926239207,-0.00237413030118,-0.00316282105632,1.21846967915e-07,0.0,0.0,0.0,1.21846967915e-07,0.0,0.0,0.0,1.21846967915e-07,-0.267966538668,-0.123371072114,9.77298164368,9e-08,0.0,0.0,0.0,9e-08,0.0,0.0,0.0,9e-08
2767190000000,1754,2767190000000,base_link,0.00925984923289,-0.0116736198266,0.0192065717475,-0.999704533478,1.0,0.0,0.0,0.0,1.0,0.0,0.0,0.0,1.0,0.001397330896,-0.008216727525,0.00242504896596,1.21846967915e-07,0.0,0.0,0.0,1.21846967915e-07,0.0,0.0,0.0,1.21846967915e-07,-0.168461591005,-0.273443967104,9.75617313385,9e-08,0.0,0.0,0.0,9e-08,0.0,0.0,0.0,9e-08
2767210000000,1755,2767210000000,base_link,0.00927985211073,-0.011683420039,0.0191840653304,-0.999704702065,1.0,0.0,0.0,0.0,1.0,0.0,0.0,0.0,1.0,-0.000806307303719,-0.00361111061648,0.00449347076938,1.21846967915e-07,0.0,0.0,0.0,1.21846967915e-07,0.0,0.0,0.0,1.21846967915e-07,-0.22854334116,-0.195537537336,9.77378749847,9e-08,0.0,0.0,0.0,9e-08,0.0,0.0,0.0,9e-08
2767230000000,1756,2767230000000,base_link,0.00932829052884,-0.0116569954468,0.0192025677969,-0.999704154156,1.0,0.0,0.0,0.0,1.0,0.0,0.0,0.0,1.0,-0.00583430798724,-0.00930583290756,0.000649830442853,1.21846967915e-07,0.0,0.0,0.0,1.21846967915e-07,0.0,0.0,0.0,1.21846967915e-07,-0.231801360846,-0.229719772935,9.84147262573,9e-08,0.0,0.0,0.0,9e-08,0.0,0.0,0.0,9e-08
2767250000000,1757,2767250000000,base_link,0.00932545450691,-0.0116591320944,0.0192240205428,-0.999703774834,1.0,0.0,0.0,0.0,1.0,0.0,0.0,0.0,1.0,0.000168593935086,-0.00618751952425,-0.000524557079189,1.21846967915e-07,0.0,0.0,0.0,1.21846967915e-07,0.0,0.0,0.0,1.21846967915e-07,-0.241640299559,-0.136183172464,9.80299758911,9e-08,0.0,0.0,0.0,9e-08,0.0,0.0,0.0,9e-08
2767270000000,1758,2767270000000,base_link,0.00932643409187,-0.0116464923204,0.0191982266715,-0.99970436489,1.0,0.0,0.0,0.0,1.0,0.0,0.0,0.0,1.0,0.0022656454239,-0.00792046170682,0.00560963107273,1.21846967915e-07,0.0,0.0,0.0,1.21846967915e-07,0.0,0.0,0.0,1.21846967915e-07,-0.407062649727,-0.21078915894,9.75199222565,9e-08,0.0,0.0,0.0,9e-08,0.0,0.0,0.0,9e-08
2767290000000,1759,2767290000000,base_link,0.00930338034196,-0.0116693010917,0.019196709385,-0.99970436489,1.0,0.0,0.0,0.0,1.0,0.0,0.0,0.0,1.0,0.00222780415788,-0.00391063839197,0.0023615793325,1.21846967915e-07,0.0,0.0,0.0,1.21846967915e-07,0.0,0.0,0.0,1.21846967915e-07,-0.166459470987,-0.169244885445,9.75485801697,9e-08,0.0,0.0,0.0,9e-08,0.0,0.0,0.0,9e-08
2767310000000,1760,2767310000000,base_link,0.0092727291287,-0.0116945588255,0.0192197637111,-0.999703901275,1.0,0.0,0.0,0.0,1.0,0.0,0.0,0.0,1.0,0.00413520168513,-0.00204466027208,0.000290985888569,1.21846967915e-07,0.0,0.0,0.0,1.21846967915e-07,0.0,0.0,0.0,1.21846967915e-07,-0.27900788188,-0.211131677032,9.79743671417,9e-08,0.0,0.0,0.0,9e-08,0.0,0.0,0.0,9e-08
2767330000000,1761,2767330000000,base_link,0.00923894176185,-0.011708248731,0.0191939698398,-0.999704575625,1.0,0.0,0.0,0.0,1.0,0.0,0.0,0.0,1.0,0.00589698180556,-0.00296668871306,0.00340812816285,1.21846967915e-07,0.0,0.0,0.0,1.21846967915e-07,0.0,0.0,0.0,1.21846967915e-07,-0.205288514495,-0.238000914454,9.76410770416,9e-08,0.0,0.0,0.0,9e-08,0.0,0.0,0.0,9e-08
2767350000000,1762,2767350000000,base_link,0.00923018344917,-0.0117699448025,0.0191866362882,-0.999704069862,1.0,0.0,0.0,0.0,1.0,0.0,0.0,0.0,1.0,0.00148738804273,-0.0032111518085,0.00194239034317,1.21846967915e-07,0.0,0.0,0.0,1.21846967915e-07,0.0,0.0,0.0,1.21846967915e-07,-0.140193805099,-0.166918188334,9.73244380951,9e-08,0.0,0.0,0.0,9e-08,0.0,0.0,0.0,9e-08
2767370000000,1763,2767370000000,base_link,0.00922459446425,-0.0117919486679,0.0192330821152,-0.999702974044,1.0,0.0,0.0,0.0,1.0,0.0,0.0,0.0,1.0,0.00229593226686,-0.00377645296976,-0.0047325193882,1.21846967915e-07,0.0,0.0,0.0,1.21846967915e-07,0.0,0.0,0.0,1.21846967915e-07,-0.283971905708,-0.154670447111,9.71461486816,9e-08,0.0,0.0,0.0,9e-08,0.0,0.0,0.0,9e-08
2767390000000,1764,2767390000000,base_link,0.00921319612895,-0.011776030577,0.01919864814,-0.999703943422,1.0,0.0,0.0,0.0,1.0,0.0,0.0,0.0,1.0,0.0024099946022,-0.0102258557454,0.00606542266905,1.21846967915e-07,0.0,0.0,0.0,1.21846967915e-07,0.0,0.0,0.0,1.21846967915e-07,-0.240498140454,-0.216396480799,9.82247924805,9e-08,0.0,0.0,0.0,9e-08,0.0,0.0,0.0,9e-08
2767410000000,1765,2767410000000,base_link,0.00920378396389,-0.0117255309969,0.0192250320672,-0.999704027715,1.0,0.0,0.0,0.0,1.0,0.0,0.0,0.0,1.0,0.00268697086722,-0.0136790666729,-0.00267055211589,1.21846967915e-07,0.0,0.0,0.0,1.21846967915e-07,0.0,0.0,0.0,1.21846967915e-07,-0.160102084279,-0.137904182076,9.73879814148,9e-08,0.0,0.0,0.0,9e-08,0.0,0.0,0.0,9e-08
2767430000000,1766,2767430000000,base_link,0.00917955660535,-0.01170456508,0.0192507416447,-0.999704027715,1.0,0.0,0.0,0.0,1.0,0.0,0.0,0.0,1.0,0.00475102942437,-0.0108784884214,-0.00148399430327,1.21846967915e-07,0.0,0.0,0.0,1.21846967915e-07,0.0,0.0,0.0,1.21846967915e-07,-0.219192683697,-0.165881201625,9.83862018585,9e-08,0.0,0.0,0.0,9e-08,0.0,0.0,0.0,9e-08
2767450000000,1767,2767450000000,base_link,0.00917682191696,-0.0116941196586,0.0192279823465,-0.999704617771,1.0,0.0,0.0,0.0,1.0,0.0,0.0,0.0,1.0,0.00315294950269,-0.00587935606018,0.00415168283507,1.21846967915e-07,0.0,0.0,0.0,1.21846967915e-07,0.0,0.0,0.0,1.21846967915e-07,-0.222863852978,-0.235033378005,9.78907585144,9e-08,0.0,0.0,0.0,9e-08,0.0,0.0,0.0,9e-08
2767470000000,1768,2767470000000,base_link,0.00917610871326,-0.0116710317467,0.0192560942945,-0.999704407037,1.0,0.0,0.0,0.0,1.0,0.0,0.0,0.0,1.0,0.000810558442026,-0.00958128832281,-0.00148663320579,1.21846967915e-07,0.0,0.0,0.0,1.21846967915e-07,0.0,0.0,0.0,1.21846967915e-07,-0.245860606432,-0.186911836267,9.76246070862,9e-08,0.0,0.0,0.0,9e-08,0.0,0.0,0.0,9e-08
2767490000000,1769,2767490000000,base_link,0.00914514543222,-0.011708982185,0.0192309326259,-0.999704702065,1.0,0.0,0.0,0.0,1.0,0.0,0.0,0.0,1.0,0.00465657981113,-0.000881791696884,0.00411240104586,1.21846967915e-07,0.0,0.0,0.0,1.21846967915e-07,0.0,0.0,0.0,1.21846967915e-07,-0.177372604609,-0.19171975553,9.86561107635,9e-08,0.0,0.0,0.0,9e-08,0.0,0.0,0.0,9e-08
2767510000000,1770,2767510000000,base_link,0.00917223276724,-0.0117382122592,0.0192335878774,-0.999704069862,1.0,0.0,0.0,0.0,1.0,0.0,0.0,0.0,1.0,-0.00394719326869,-0.00415493361652,0.000706403865479,1.21846967915e-07,0.0,0.0,0.0,1.21846967915e-07,0.0,0.0,0.0,1.21846967915e-07,-0.277681857347,-0.215247452259,9.69768810272,9e-08,0.0,0.0,0.0,9e-08,0.0,0.0,0.0,9e-08
2767530000000,1771,2767530000000,base_link,0.00916902400912,-0.0117357219731,0.0192185414525,-0.999704449184,1.0,0.0,0.0,0.0,1.0,0.0,0.0,0.0,1.0,0.000887771078851,-0.00599076738581,0.00411404808983,1.21846967915e-07,0.0,0.0,0.0,1.21846967915e-07,0.0,0.0,0.0,1.21846967915e-07,-0.257583498955,-0.154123321176,9.74971103668,9e-08,0.0,0.0,0.0,9e-08,0.0,0.0,0.0,9e-08
2767550000000,1772,2767546000000,base_link,0.00915716041213,-0.0117126221251,0.0191994067833,-0.999705123534,1.0,0.0,0.0,0.0,1.0,0.0,0.0,0.0,1.0,0.00205578282475,-0.00968186277896,0.00226888852194,1.21846967915e-07,0.0,0.0,0.0,1.21846967915e-07,0.0,0.0,0.0,1.21846967915e-07,-0.240208119154,-0.196289211512,9.71238136292,9e-08,0.0,0.0,0.0,9e-08,0.0,0.0,0.0,9e-08
2767570000000,1773,2767570000000,base_link,0.00912881682114,-0.0117141300274,0.0192216603193,-0.99970503924,1.0,0.0,0.0,0.0,1.0,0.0,0.0,0.0,1.0,0.00491950800642,-0.00669552572072,-0.00187822442967,1.21846967915e-07,0.0,0.0,0.0,1.21846967915e-07,0.0,0.0,0.0,1.21846967915e-07,-0.24916164577,-0.114428900182,9.80469703674,9e-08,0.0,0.0,0.0,9e-08,0.0,0.0,0.0,9e-08
2767590000000,1774,2767590000000,base_link,0.00911904904205,-0.0117059959326,0.0192086369431,-0.999705418561,1.0,0.0,0.0,0.0,1.0,0.0,0.0,0.0,1.0,0.00278197741136,-0.00743348104879,0.0031808456406,1.21846967915e-07,0.0,0.0,0.0,1.21846967915e-07,0.0,0.0,0.0,1.21846967915e-07,-0.26771479845,-0.149866908789,9.77426719666,9e-08,0.0,0.0,0.0,9e-08,0.0,0.0,0.0,9e-08
2767610000000,1775,2767610000000,base_link,0.00910629212943,-0.0117094462942,0.0192485921555,-0.999704744212,1.0,0.0,0.0,0.0,1.0,0.0,0.0,0.0,1.0,0.000834545353428,-0.00628152303398,-0.00096558133373,1.21846967915e-07,0.0,0.0,0.0,1.21846967915e-07,0.0,0.0,0.0,1.21846967915e-07,-0.276022255421,-0.172098770738,9.82034683228,9e-08,0.0,0.0,0.0,9e-08,0.0,0.0,0.0,9e-08
2767630000000,1776,2767630000000,base_link,0.00910879608028,-0.0117560829346,0.0192497301204,-0.999704112009,1.0,0.0,0.0,0.0,1.0,0.0,0.0,0.0,1.0,0.001907483791,-1.93649611901e-05,0.00119194609579,1.21846967915e-07,0.0,0.0,0.0,1.21846967915e-07,0.0,0.0,0.0,1.21846967915e-07,-0.296050727367,-0.134971901774,9.75700569153,9e-08,0.0,0.0,0.0,9e-08,0.0,0.0,0.0,9e-08
2767650000000,1777,2767646000000,base_link,0.0090966116898,-0.0117780862237,0.0192572322594,-0.999703859128,1.0,0.0,0.0,0.0,1.0,0.0,0.0,0.0,1.0,0.00148753426038,-0.00126982596703,0.000171958934516,1.21846967915e-07,0.0,0.0,0.0,1.21846967915e-07,0.0,0.0,0.0,1.21846967915e-07,-0.307337582111,-0.154079690576,9.74733352661,9e-08,0.0,0.0,0.0,9e-08,0.0,0.0,0.0,9e-08
2767670000000,1778,2767670000000,base_link,0.00910762971564,-0.0118118426389,0.0192616155317,-0.999703269072,1.0,0.0,0.0,0.0,1.0,0.0,0.0,0.0,1.0,0.000366454536561,-0.00308498274535,0.00314901769161,1.21846967915e-07,0.0,0.0,0.0,1.21846967915e-07,0.0,0.0,0.0,1.21846967915e-07,-0.222626775503,-0.183571100235,9.83391857147,9e-08,0.0,0.0,0.0,9e-08,0.0,0.0,0.0,9e-08
2767690000000,1779,2767690000000,base_link,0.00911480027752,-0.0118117171862,0.0192610254758,-0.999703184779,1.0,0.0,0.0,0.0,1.0,0.0,0.0,0.0,1.0,-4.71680541523e-05,-0.00510449195281,0.00301373144612,1.21846967915e-07,0.0,0.0,0.0,1.21846967915e-07,0.0,0.0,0.0,1.21846967915e-07,-0.15811792016,-0.137893125415,9.78733730316,9e-08,0.0,0.0,0.0,9e-08,0.0,0.0,0.0,9e-08
2767710000000,1780,2767710000000,base_link,0.00931656901282,-0.0118452872333,0.0192281930808,-0.999701541051,1.0,0.0,0.0,0.0,1.0,0.0,0.0,0.0,1.0,-0.0247339289635,4.41571173724e-05,0.00702742440626,1.21846967915e-07,0.0,0.0,0.0,1.21846967915e-07,0.0,0.0,0.0,1.21846967915e-07,0.0434089452028,-0.0640567243099,10.3233699799,9e-08,0.0,0.0,0.0,9e-08,0.0,0.0,0.0,9e-08
2767730000000,1781,2767730000000,base_link,0.0100419323277,-0.0119477117308,0.018932954407,-0.999698970094,1.0,0.0,0.0,0.0,1.0,0.0,0.0,0.0,1.0,-0.0933793485165,0.00483940541744,0.0392313487828,1.21846967915e-07,0.0,0.0,0.0,1.21846967915e-07,0.0,0.0,0.0,1.21846967915e-07,0.316157668829,0.440648704767,11.2316360474,9e-08,0.0,0.0,0.0,9e-08,0.0,0.0,0.0,9e-08
2767750000000,1782,2767750000000,base_link,0.0120372478125,-0.0125815087536,0.0183388102835,-0.999680214746,1.0,0.0,0.0,0.0,1.0,0.0,0.0,0.0,1.0,-0.250619083643,0.0825901180506,0.0681812688708,1.21846967915e-07,0.0,0.0,0.0,1.21846967915e-07,0.0,0.0,0.0,1.21846967915e-07,0.711674630642,0.736426353455,11.9444503784,9e-08,0.0,0.0,0.0,9e-08,0.0,0.0,0.0,9e-08
2767770000000,1783,2767770000000,base_link,0.0154730134636,-0.0145143849582,0.0175490626361,-0.999620956277,1.0,0.0,0.0,0.0,1.0,0.0,0.0,0.0,1.0,-0.367380619049,0.200698286295,0.0788654983044,1.21846967915e-07,0.0,0.0,0.0,1.21846967915e-07,0.0,0.0,0.0,1.21846967915e-07,0.518047571182,0.611115396023,12.5937194824,9e-08,0.0,0.0,0.0,9e-08,0.0,0.0,0.0,9e-08
2767790000000,1784,2767790000000,base_link,0.0206276296301,-0.0184635723637,0.0166267631502,-0.999478457782,1.0,0.0,0.0,0.0,1.0,0.0,0.0,0.0,1.0,-0.588303387165,0.459409594536,0.0924943387508,1.21846967915e-07,0.0,0.0,0.0,1.21846967915e-07,0.0,0.0,0.0,1.21846967915e-07,0.142849981785,0.170865282416,13.4026899338,9e-08,0.0,0.0,0.0,9e-08,0.0,0.0,0.0,9e-08
2767810000000,1785,2767810000000,base_link,0.027664940951,-0.0247000158547,0.0156884900086,-0.999188908933,1.0,0.0,0.0,0.0,1.0,0.0,0.0,0.0,1.0,-0.788698494434,0.683773338795,0.0937943607569,1.21846967915e-07,0.0,0.0,0.0,1.21846967915e-07,0.0,0.0,0.0,1.21846967915e-07,-0.207286462188,-0.0769658237696,13.7970161438,9e-08,0.0,0.0,0.0,9e-08,0.0,0.0,0.0,9e-08
2767830000000,1786,2767830000000,base_link,0.0365757208472,-0.0329271034038,0.0147091236898,-0.998679985737,1.0,0.0,0.0,0.0,1.0,0.0,0.0,0.0,1.0,-0.961750984192,0.857119441032,0.0985938608646,1.21846967915e-07,0.0,0.0,0.0,1.21846967915e-07,0.0,0.0,0.0,1.21846967915e-07,-0.64242297411,-0.609786748886,13.8558206558,9e-08,0.0,0.0,0.0,9e-08,0.0,0.0,0.0,9e-08
2767850000000,1787,2767850000000,base_link,0.0474012342116,-0.043684016516,0.0135025437106,-0.997828872278,1.0,0.0,0.0,0.0,1.0,0.0,0.0,0.0,1.0,-0.937963604927,0.885153055191,0.103410393,1.21846967915e-07,0.0,0.0,0.0,1.21846967915e-07,0.0,0.0,0.0,1.21846967915e-07,-0.366709917784,-0.19584774971,13.9841003418,9e-08,0.0,0.0,0.0,9e-08,0.0,0.0,0.0,9e-08
2767870000000,1788,2767866000000,base_link,0.0527958083152,-0.0508862924952,0.0124985214854,-0.99722971268,1.0,0.0,0.0,0.0,1.0,0.0,0.0,0.0,1.0,-0.496089935303,0.672706067562,0.112314671278,1.21846967915e-07,0.0,0.0,0.0,1.21846967915e-07,0.0,0.0,0.0,1.21846967915e-07,-0.23427888751,-0.062437556684,13.8836965561,9e-08,0.0,0.0,0.0,9e-08,0.0,0.0,0.0,9e-08
2767890000000,1789,2767890000000,base_link,0.0548716329241,-0.0548871267477,0.0117244524656,-0.996914791428,1.0,0.0,0.0,0.0,1.0,0.0,0.0,0.0,1.0,-0.25365114212,0.473961472511,0.110961489379,1.21846967915e-07,0.0,0.0,0.0,1.21846967915e-07,0.0,0.0,0.0,1.21846967915e-07,-0.301373004913,-0.252066135406,13.8387184143,9e-08,0.0,0.0,0.0,9e-08,0.0,0.0,0.0,9e-08
2767910000000,1790,2767910000000,base_link,0.0578999595988,-0.0586490788366,0.0106533324576,-0.996541286056,1.0,0.0,0.0,0.0,1.0,0.0,0.0,0.0,1.0,-0.331282496452,0.345584511757,0.112676516175,1.21846967915e-07,0.0,0.0,0.0,1.21846967915e-07,0.0,0.0,0.0,1.21846967915e-07,-0.4284247756,-0.592533648014,13.770409584,9e-08,0.0,0.0,0.0,9e-08,0.0,0.0,0.0,9e-08
2767930000000,1791,2767926000000,base_link,0.0646635375929,-0.0631802556508,0.0092664904073,-0.995862005299,1.0,0.0,0.0,0.0,1.0,0.0,0.0,0.0,1.0,-0.626489758492,0.369651824236,0.103118792176,1.21846967915e-07,0.0,0.0,0.0,1.21846967915e-07,0.0,0.0,0.0,1.21846967915e-07,-0.501230597496,-0.61596518755,13.6080904007,9e-08,0.0,0.0,0.0,9e-08,0.0,0.0,0.0,9e-08
2767950000000,1792,2767950000000,base_link,0.0690023951269,-0.0663325262876,0.00843383726812,-0.995373101856,1.0,0.0,0.0,0.0,1.0,0.0,0.0,0.0,1.0,-0.492929160595,0.373977035284,0.0937882736325,1.21846967915e-07,0.0,0.0,0.0,1.21846967915e-07,0.0,0.0,0.0,1.21846967915e-07,-0.509929895401,-0.0937308296561,13.5557107925,9e-08,0.0,0.0,0.0,9e-08,0.0,0.0,0.0,9e-08
2767970000000,1793,2767970000000,base_link,0.070986312688,-0.0702480190164,0.00743596848278,-0.994972791089,1.0,0.0,0.0,0.0,1.0,0.0,0.0,0.0,1.0,-0.0703572481871,0.291408926249,0.0959855020046,1.21846967915e-07,0.0,0.0,0.0,1.21846967915e-07,0.0,0.0,0.0,1.21846967915e-07,-0.489516019821,-0.128118649125,13.4118680954,9e-08,0.0,0.0,0.0,9e-08,0.0,0.0,0.0,9e-08
2767990000000,1794,2767990000000,base_link,0.0702943250262,-0.0719392452361,0.00690622474384,-0.99490497681,1.0,0.0,0.0,0.0,1.0,0.0,0.0,0.0,1.0,0.09510871768,0.196021139622,0.0884562507272,1.21846967915e-07,0.0,0.0,0.0,1.21846967915e-07,0.0,0.0,0.0,1.21846967915e-07,-0.494062125683,-0.487404435873,13.524769783,9e-08,0.0,0.0,0.0,9e-08,0.0,0.0,0.0,9e-08
2768010000000,1795,2768010000000,base_link,0.0712541513417,-0.0732639677708,0.00611837370463,-0.994745113813,1.0,0.0,0.0,0.0,1.0,0.0,0.0,0.0,1.0,-0.220624953508,0.101750016212,0.0809076800942,1.21846967915e-07,0.0,0.0,0.0,1.21846967915e-07,0.0,0.0,0.0,1.21846967915e-07,-0.507787168026,-0.923959553242,13.5535230637,9e-08,0.0,0.0,0.0,9e-08,0.0,0.0,0.0,9e-08
2768030000000,1796,2768026000000,base_link,0.0753720736963,-0.0744723007131,0.00514941765736,-0.994357278513,1.0,0.0,0.0,0.0,1.0,0.0,0.0,0.0,1.0,-0.477263778448,0.110716097057,0.0730964466929,1.21846967915e-07,0.0,0.0,0.0,1.21846967915e-07,0.0,0.0,0.0,1.21846967915e-07,-0.728240787983,-0.746047079563,13.5973234177,9e-08,0.0,0.0,0.0,9e-08,0.0,0.0,0.0,9e-08
2768050000000,1797,2768050000000,base_link,0.07871891493,-0.0757736878877,0.0043559610873,-0.994003413573,1.0,0.0,0.0,0.0,1.0,0.0,0.0,0.0,1.0,-0.21851618588,0.121273688972,0.0648854225874,1.21846967915e-07,0.0,0.0,0.0,1.21846967915e-07,0.0,0.0,0.0,1.21846967915e-07,-0.651724219322,-0.228342100978,13.8027534485,9e-08,0.0,0.0,0.0,9e-08,0.0,0.0,0.0,9e-08
2768070000000,1798,2768070000000,base_link,0.0778009645954,-0.0769226661724,0.0038818511884,-0.993989378673,1.0,0.0,0.0,0.0,1.0,0.0,0.0,0.0,1.0,0.154040321708,0.100337728858,0.0666457563639,1.21846967915e-07,0.0,0.0,0.0,1.21846967915e-07,0.0,0.0,0.0,1.21846967915e-07,-0.576059281826,-0.233130857348,13.6789169312,9e-08,0.0,0.0,0.0,9e-08,0.0,0.0,0.0,9e-08
2768090000000,1799,2768090000000,base_link,0.0751896758831,-0.0776012795361,0.00353177946467,-0.994138915691,1.0,0.0,0.0,0.0,1.0,0.0,0.0,0.0,1.0,0.212549239397,0.0454774908721,0.0594495274127,1.21846967915e-07,0.0,0.0,0.0,1.21846967915e-07,0.0,0.0,0.0,1.21846967915e-07,-0.603483974934,-0.880903720856,13.9583644867,9e-08,0.0,0.0,0.0,9e-08,0.0,0.0,0.0,9e-08
2768110000000,1800,2768110000000,base_link,0.0758924157246,-0.0779442346163,0.00300119278876,-0.994060396112,1.0,0.0,0.0,0.0,1.0,0.0,0.0,0.0,1.0,-0.233859091997,0.0162817277014,0.0463883951306,1.21846967915e-07,0.0,0.0,0.0,1.21846967915e-07,0.0,0.0,0.0,1.21846967915e-07,-0.67463773489,-1.18054080009,13.7363204956,9e-08,0.0,0.0,0.0,9e-08,0.0,0.0,0.0,9e-08
2768130000000,1801,2768130000000,base_link,0.0801090674835,-0.0782184770802,0.0022528333466,-0.99370990292,1.0,0.0,0.0,0.0,1.0,0.0,0.0,0.0,1.0,-0.465149015188,0.0160102136433,0.0448963753879,1.21846967915e-07,0.0,0.0,0.0,1.21846967915e-07,0.0,0.0,0.0,1.21846967915e-07,-0.805041670799,-0.71982139349,13.8665027618,9e-08,0.0,0.0,0.0,9e-08,0.0,0.0,0.0,9e-08
2768150000000,1802,2768150000000,base_link,0.0823220870401,-0.0785116355766,0.00164406426671,-0.993507092285,1.0,0.0,0.0,0.0,1.0,0.0,0.0,0.0,1.0,-0.174954563379,0.0187502894551,0.0457723513246,1.21846967915e-07,0.0,0.0,0.0,1.21846967915e-07,0.0,0.0,0.0,1.21846967915e-07,-0.779196083546,-0.288985073566,13.738527298,9e-08,0.0,0.0,0.0,9e-08,0.0,0.0,0.0,9e-08
2768170000000,1803,2768170000000,base_link,0.0788029915646,-0.078690140229,0.00135885654284,-0.993778728724,1.0,0.0,0.0,0.0,1.0,0.0,0.0,0.0,1.0,0.388521641493,-0.00130382960197,0.0485466644168,1.21846967915e-07,0.0,0.0,0.0,1.21846967915e-07,0.0,0.0,0.0,1.21846967915e-07,-0.819190561771,-0.558628499508,13.6307277679,9e-08,0.0,0.0,0.0,9e-08,0.0,0.0,0.0,9e-08
2768190000000,1804,2768186000000,base_link,0.0763381665567,-0.0786150486317,0.00117846803121,-0.993977324674,1.0,0.0,0.0,0.0,1.0,0.0,0.0,0.0,1.0,0.313491463661,-0.0202710647136,0.0463103726506,1.21846967915e-07,0.0,0.0,0.0,1.21846967915e-07,0.0,0.0,0.0,1.21846967915e-07,-0.814578235149,-1.19014441967,13.8023071289,9e-08,0.0,0.0,0.0,9e-08,0.0,0.0,0.0,9e-08
2768210000000,1805,2768210000000,base_link,0.0776578033991,-0.0783897547109,0.000654751291617,-0.993893283858,1.0,0.0,0.0,0.0,1.0,0.0,0.0,0.0,1.0,-0.213437542319,-0.0331932790577,0.0409022681415,1.21846967915e-07,0.0,0.0,0.0,1.21846967915e-07,0.0,0.0,0.0,1.21846967915e-07,-0.826178193092,-1.22951281071,13.465051651,9e-08,0.0,0.0,0.0,9e-08,0.0,0.0,0.0,9e-08
2768230000000,1806,2768230000000,base_link,0.0819515390274,-0.0782844148369,1.07052995218e-05,-0.993556994154,1.0,0.0,0.0,0.0,1.0,0.0,0.0,0.0,1.0,-0.457820653915,-0.0140499128029,0.0275113657117,1.21846967915e-07,0.0,0.0,0.0,1.21846967915e-07,0.0,0.0,0.0,1.21846967915e-07,-0.947798550129,-0.785950183868,13.5287189484,9e-08,0.0,0.0,0.0,9e-08,0.0,0.0,0.0,9e-08
2768250000000,1807,2768250000000,base_link,0.0830065702992,-0.078377189764,-0.000389858348726,-0.993461995157,1.0,0.0,0.0,0.0,1.0,0.0,0.0,0.0,1.0,-0.0380957126617,0.00210786401294,0.0327990315855,1.21846967915e-07,0.0,0.0,0.0,1.21846967915e-07,0.0,0.0,0.0,1.21846967915e-07,-0.96978777647,-0.534975647926,13.5365505219,9e-08,0.0,0.0,0.0,9e-08,0.0,0.0,0.0,9e-08
2768270000000,1808,2768270000000,base_link,0.0791232215394,-0.0783512813471,-0.00046163443174,-0.99378092036,1.0,0.0,0.0,0.0,1.0,0.0,0.0,0.0,1.0,0.451426923275,-0.0142700215802,0.0380631349981,1.21846967915e-07,0.0,0.0,0.0,1.21846967915e-07,0.0,0.0,0.0,1.21846967915e-07,-1.07936000824,-0.659871399403,13.5265254974,9e-08,0.0,0.0,0.0,9e-08,0.0,0.0,0.0,9e-08
2768290000000,1809,2768290000000,base_link,0.075901371436,-0.0780070339145,-0.000694032154429,-0.99405908956,1.0,0.0,0.0,0.0,1.0,0.0,0.0,0.0,1.0,0.175691246986,-0.0436505526304,0.0368021167815,1.21846967915e-07,0.0,0.0,0.0,1.21846967915e-07,0.0,0.0,0.0,1.21846967915e-07,-0.989633500576,-1.48472118378,13.7265281677,9e-08,0.0,0.0,0.0,9e-08,0.0,0.0,0.0,9e-08
2768310000000,1810,2768310000000,base_link,0.0790582705705,-0.077692096775,-0.00121825465621,-0.993837144256,1.0,0.0,0.0,0.0,1.0,0.0,0.0,0.0,1.0,-0.309482872486,-0.0434405691922,0.0258405208588,1.21846967915e-07,0.0,0.0,0.0,1.21846967915e-07,0.0,0.0,0.0,1.21846967915e-07,-1.06659173965,-1.29387021065,13.556974411,9e-08,0.0,0.0,0.0,9e-08,0.0,0.0,0.0,9e-08
2768330000000,1811,2768330000000,base_link,0.0825167789739,-0.0776005525853,-0.00164621375599,-0.993562515391,1.0,0.0,0.0,0.0,1.0,0.0,0.0,0.0,1.0,-0.449329912663,-0.017567936331,0.0188502259552,1.21846967915e-07,0.0,0.0,0.0,1.21846967915e-07,0.0,0.0,0.0,1.21846967915e-07,-1.10236799717,-0.746770679951,13.679898262,9e-08,0.0,0.0,0.0,9e-08,0.0,0.0,0.0,9e-08
2768350000000,1812,2768350000000,base_link,0.0824904809867,-0.077600329668,-0.00189938987499,-0.993564327706,1.0,0.0,0.0,0.0,1.0,0.0,0.0,0.0,1.0,0.214126288891,-0.00899398513138,0.0299802031368,1.21846967915e-07,0.0,0.0,0.0,1.21846967915e-07,0.0,0.0,0.0,1.21846967915e-07,-1.00332379341,-0.546675145626,13.5663948059,9e-08,0.0,0.0,0.0,9e-08,0.0,0.0,0.0,9e-08
2768370000000,1813,2768370000000,base_link,0.076790858345,-0.0773576154546,-0.00189273067293,-0.994039997038,1.0,0.0,0.0,0.0,1.0,0.0,0.0,0.0,1.0,0.529418587685,-0.0366420075297,0.0380927547812,1.21846967915e-07,0.0,0.0,0.0,1.21846967915e-07,0.0,0.0,0.0,1.21846967915e-07,-1.11805582047,-1.13843035698,13.6351518631,9e-08,0.0,0.0,0.0,9e-08,0.0,0.0,0.0,9e-08
2768386000000,1814,2768390000000,base_link,0.0749913912598,-0.077029910022,-0.00199304017238,-0.994202599579,1.0,0.0,0.0,0.0,1.0,0.0,0.0,0.0,1.0,0.216496527195,-0.0510906949639,0.0276887826622,1.21846967915e-07,0.0,0.0,0.0,1.21846967915e-07,0.0,0.0,0.0,1.21846967915e-07,-1.13197469711,-1.67099273205,13.6653699875,9e-08,0.0,0.0,0.0,9e-08,0.0,0.0,0.0,9e-08
2768410000000,1815,2768410000000,base_link,0.0780186010018,-0.0765753333764,-0.00248851852348,-0.994003666454,1.0,0.0,0.0,0.0,1.0,0.0,0.0,0.0,1.0,-0.388630479574,-0.0500762052834,0.0224754177034,1.21846967915e-07,0.0,0.0,0.0,1.21846967915e-07,0.0,0.0,0.0,1.21846967915e-07,-1.23286819458,-1.41629528999,13.4455213547,9e-08,0.0,0.0,0.0,9e-08,0.0,0.0,0.0,9e-08
2768430000000,1816,2768430000000,base_link,0.0816023273628,-0.0760488972596,-0.00300953786477,-0.993754831461,1.0,0.0,0.0,0.0,1.0,0.0,0.0,0.0,1.0,-0.216214805841,-0.0532043129206,0.0199987441301,1.21846967915e-07,0.0,0.0,0.0,1.21846967915e-07,0.0,0.0,0.0,1.21846967915e-07,-1.10880661011,-0.794246613979,13.6583690643,9e-08,0.0,0.0,0.0,9e-08,0.0,0.0,0.0,9e-08
2768450000000,1817,2768450000000,base_link,0.0790410380248,-0.0754983899416,-0.0030624743065,-0.994003582161,1.0,0.0,0.0,0.0,1.0,0.0,0.0,0.0,1.0,0.349744766951,-0.0795330256224,0.0265576206148,1.21846967915e-07,0.0,0.0,0.0,1.21846967915e-07,0.0,0.0,0.0,1.21846967915e-07,-1.12693095207,-0.674347221851,13.1137180328,9e-08,0.0,0.0,0.0,9e-08,0.0,0.0,0.0,9e-08
2768470000000,1818,2768466000000,base_link,0.0713033835529,-0.0742157232117,-0.00295651712934,-0.99468551817,1.0,0.0,0.0,0.0,1.0,0.0,0.0,0.0,1.0,0.691100656986,-0.122453466058,0.0329619050026,1.21846967915e-07,0.0,0.0,0.0,1.21846967915e-07,0.0,0.0,0.0,1.21846967915e-07,-1.10619819164,-1.32642686367,11.5759048462,9e-08,0.0,0.0,0.0,9e-08,0.0,0.0,0.0,9e-08
2768490000000,1819,2768490000000,base_link,0.0685771128459,-0.0733132345555,-0.00298804297203,-0.994943962645,1.0,0.0,0.0,0.0,1.0,0.0,0.0,0.0,1.0,0.329809725285,-0.121567063034,0.0213516261429,1.21846967915e-07,0.0,0.0,0.0,1.21846967915e-07,0.0,0.0,0.0,1.21846967915e-07,-1.12111759186,-1.57419276237,10.2090826035,9e-08,0.0,0.0,0.0,9e-08,0.0,0.0,0.0,9e-08
2768510000000,1820,2768510000000,base_link,0.0700714484577,-0.0725604727433,-0.00330321710519,-0.994893976482,1.0,0.0,0.0,0.0,1.0,0.0,0.0,0.0,1.0,-0.22758422792,-0.0737859383225,0.0155563103035,1.21846967915e-07,0.0,0.0,0.0,1.21846967915e-07,0.0,0.0,0.0,1.21846967915e-07,-1.17157995701,-1.4042018652,8.64989757538,9e-08,0.0,0.0,0.0,9e-08,0.0,0.0,0.0,9e-08
2768530000000,1821,2768530000000,base_link,0.0741858227392,-0.0723781465468,-0.00370222132005,-0.994607588647,1.0,0.0,0.0,0.0,1.0,0.0,0.0,0.0,1.0,-0.424330234528,-0.00653241854161,0.00839126110077,1.21846967915e-07,0.0,0.0,0.0,1.21846967915e-07,0.0,0.0,0.0,1.21846967915e-07,-1.00614273548,-0.916639208794,6.70688152313,9e-08,0.0,0.0,0.0,9e-08,0.0,0.0,0.0,9e-08
2768550000000,1822,2768550000000,base_link,0.0771131097943,-0.0725238705103,-0.00398582746368,-0.994373210022,1.0,0.0,0.0,0.0,1.0,0.0,0.0,0.0,1.0,-0.213177919388,0.0167402606457,0.0101527515799,1.21846967915e-07,0.0,0.0,0.0,1.21846967915e-07,0.0,0.0,0.0,1.21846967915e-07,-1.00535070896,-0.606583952904,5.91333770752,9e-08,0.0,0.0,0.0,9e-08,0.0,0.0,0.0,9e-08
2768570000000,1823,2768570000000,base_link,0.0776491862619,-0.0730042811984,-0.00425472435717,-0.994295238352,1.0,0.0,0.0,0.0,1.0,0.0,0.0,0.0,1.0,0.0021048411727,0.039066940546,0.0287214424461,1.21846967915e-07,0.0,0.0,0.0,1.21846967915e-07,0.0,0.0,0.0,1.21846967915e-07,-0.934603333473,-0.700718700886,5.37403774261,9e-08,0.0,0.0,0.0,9e-08,0.0,0.0,0.0,9e-08
2768586000000,1824,2768590000000,base_link,0.0776955846737,-0.0737631510109,-0.0044152195563,-0.994234884065,1.0,0.0,0.0,0.0,1.0,0.0,0.0,0.0,1.0,-0.0031707463786,0.0905132591724,0.0282701104879,1.21846967915e-07,0.0,0.0,0.0,1.21846967915e-07,0.0,0.0,0.0,1.21846967915e-07,-0.98193603754,-0.940466403961,5.20879459381,9e-08,0.0,0.0,0.0,9e-08,0.0,0.0,0.0,9e-08
2768610000000,1825,2768610000000,base_link,0.0789606776495,-0.0754315313751,-0.00467391691246,-0.99400880837,1.0,0.0,0.0,0.0,1.0,0.0,0.0,0.0,1.0,-0.149846464396,0.171745300293,0.0296005755663,1.21846967915e-07,0.0,0.0,0.0,1.21846967915e-07,0.0,0.0,0.0,1.21846967915e-07,-0.9611941576,-0.992779254913,5.53689861298,9e-08,0.0,0.0,0.0,9e-08,0.0,0.0,0.0,9e-08
2768630000000,1826,2768626000000,base_link,0.0808266628543,-0.0773407131483,-0.00492131891322,-0.993710830151,1.0,0.0,0.0,0.0,1.0,0.0,0.0,0.0,1.0,-0.174457043409,0.180396467447,0.0249032899737,1.21846967915e-07,0.0,0.0,0.0,1.21846967915e-07,0.0,0.0,0.0,1.21846967915e-07,-0.910306453705,-0.851490676403,5.80141210556,9e-08,0.0,0.0,0.0,9e-08,0.0,0.0,0.0,9e-08
2768650000000,1827,2768650000000,base_link,0.0814212738035,-0.0788114347534,-0.0051073972494,-0.993545825239,1.0,0.0,0.0,0.0,1.0,0.0,0.0,0.0,1.0,-0.0361717119813,0.131114333868,0.0275206509978,1.21846967915e-07,0.0,0.0,0.0,1.21846967915e-07,0.0,0.0,0.0,1.21846967915e-07,-0.943872392178,-0.823835790157,6.32219219208,9e-08,0.0,0.0,0.0,9e-08,0.0,0.0,0.0,9e-08
2768670000000,1828,2768670000000,base_link,0.0801313500161,-0.0794741712882,-0.00524947427573,-0.993597202247,1.0,0.0,0.0,0.0,1.0,0.0,0.0,0.0,1.0,0.156097382307,0.0436589159071,0.0289666056633,1.21846967915e-07,0.0,0.0,0.0,1.21846967915e-07,0.0,0.0,0.0,1.21846967915e-07,-0.982641637325,-0.784303367138,6.73088121414,9e-08,0.0,0.0,0.0,9e-08,0.0,0.0,0.0,9e-08
2768690000000,1829,2768690000000,base_link,0.0779848420759,-0.0791576174014,-0.00535079529955,-0.993792679331,1.0,0.0,0.0,0.0,1.0,0.0,0.0,0.0,1.0,0.221650436521,-0.0555249117315,0.0252028591931,1.21846967915e-07,0.0,0.0,0.0,1.21846967915e-07,0.0,0.0,0.0,1.21846967915e-07,-0.896779716015,-0.881301641464,7.09568500519,9e-08,0.0,0.0,0.0,9e-08,0.0,0.0,0.0,9e-08
2768710000000,1830,2768710000000,base_link,0.0759209390159,-0.0778602882192,-0.0054681321258,-0.994054326966,1.0,0.0,0.0,0.0,1.0,0.0,0.0,0.0,1.0,0.203560486436,-0.149674087763,0.0181624740362,1.21846967915e-07,0.0,0.0,0.0,1.21846967915e-07,0.0,0.0,0.0,1.21846967915e-07,-0.937775671482,-0.915522873402,7.43949460983,9e-08,0.0,0.0,0.0,9e-08,0.0,0.0,0.0,9e-08
2768730000000,1831,2768730000000,base_link,0.0729573671462,-0.0754325405945,-0.00556119236732,-0.994462814222,1.0,0.0,0.0,0.0,1.0,0.0,0.0,0.0,1.0,0.263627141714,-0.224766895175,0.0100203808397,1.21846967915e-07,0.0,0.0,0.0,1.21846967915e-07,0.0,0.0,0.0,1.21846967915e-07,-1.06697177887,-0.88803601265,7.60169839859,9e-08,0.0,0.0,0.0,9e-08,0.0,0.0,0.0,9e-08
2768750000000,1832,2768750000000,base_link,0.0703509599362,-0.0734718942265,-0.00561459242438,-0.994797080878,1.0,0.0,0.0,0.0,1.0,0.0,0.0,0.0,1.0,0.329790592194,-0.256350427866,0.0147048309445,1.21846967915e-07,0.0,0.0,0.0,1.21846967915e-07,0.0,0.0,0.0,1.21846967915e-07,-0.996787965298,-0.968748688698,7.77424907684,9e-08,0.0,0.0,0.0,9e-08,0.0,0.0,0.0,9e-08
2768770000000,1833,2768770000000,base_link,0.0665103515793,-0.0706646801677,-0.00558761844133,-0.995264658015,1.0,0.0,0.0,0.0,1.0,0.0,0.0,0.0,1.0,0.391748964787,-0.296076238155,0.0060095814988,1.21846967915e-07,0.0,0.0,0.0,1.21846967915e-07,0.0,0.0,0.0,1.21846967915e-07,-1.03930163383,-1.00328552723,7.87588977814,9e-08,0.0,0.0,0.0,9e-08,0.0,0.0,0.0,9e-08
2768790000000,1834,2768790000000,base_link,0.0627359967512,-0.0675017901715,-0.00554083543948,-0.995729369167,1.0,0.0,0.0,0.0,1.0,0.0,0.0,0.0,1.0,0.364790439606,-0.3362814188,0.00105818803422,1.21846967915e-07,0.0,0.0,0.0,1.21846967915e-07,0.0,0.0,0.0,1.21846967915e-07,-1.01363945007,-0.990218579769,7.88215732574,9e-08,0.0,0.0,0.0,9e-08,0.0,0.0,0.0,9e-08
2768810000000,1835,2768810000000,base_link,0.0559272433447,-0.0659488722513,0.0380921109499,-0.995525968476,1.0,0.0,0.0,0.0,1.0,0.0,0.0,0.0,1.0,0.322239547968,-0.348420500755,-3.2424024539e-05,1.21846967915e-07,0.0,0.0,0.0,1.21846967915e-07,0.0,0.0,0.0,1.21846967915e-07,-0.997310817242,-1.06557488441,7.91622495651,9e-08,0.0,0.0,0.0,9e-08,0.0,0.0,0.0,9e-08
2768830000000,1836,2768830000000,base_link,0.053075285961,-0.0623685356659,0.0377772318447,-0.99592471981,1.0,0.0,0.0,0.0,1.0,0.0,0.0,0.0,1.0,0.298783868551,-0.351385235786,0.00879521854222,1.21846967915e-07,0.0,0.0,0.0,1.21846967915e-07,0.0,0.0,0.0,1.21846967915e-07,-1.1310801506,-0.982564270496,8.04069709778,9e-08,0.0,0.0,0.0,9e-08,0.0,0.0,0.0,9e-08
2768850000000,1837,2768850000000,base_link,0.0504535791157,-0.0588219037176,0.0371237449585,-0.996301301901,1.0,0.0,0.0,0.0,1.0,0.0,0.0,0.0,1.0,0.27642250061,-0.347746908665,0.026998180896,1.21846967915e-07,0.0,0.0,0.0,1.21846967915e-07,0.0,0.0,0.0,1.21846967915e-07,-1.04169535637,-1.12208592892,7.90789842606,9e-08,0.0,0.0,0.0,9e-08,0.0,0.0,0.0,9e-08
2768870000000,1838,2768866000000,base_link,0.0485855695451,-0.056069649314,0.0364058576878,-0.996579344661,1.0,0.0,0.0,0.0,1.0,0.0,0.0,0.0,1.0,0.241681814194,-0.337373614311,0.0447301492095,1.21846967915e-07,0.0,0.0,0.0,1.21846967915e-07,0.0,0.0,0.0,1.21846967915e-07,-1.03579235077,-1.03629243374,7.81355428696,9e-08,0.0,0.0,0.0,9e-08,0.0,0.0,0.0,9e-08
2768890000000,1839,2768890000000,base_link,0.0464766907352,-0.0527711085333,0.035358887824,-0.996897679807,1.0,0.0,0.0,0.0,1.0,0.0,0.0,0.0,1.0,0.222526699305,-0.323102921247,0.0604876428843,1.21846967915e-07,0.0,0.0,0.0,1.21846967915e-07,0.0,0.0,0.0,1.21846967915e-07,-1.02924776077,-0.985492527485,7.742623806,9e-08,0.0,0.0,0.0,9e-08,0.0,0.0,0.0,9e-08
2768910000000,1840,2768910000000,base_link,0.044142166918,-0.0491465526598,0.0336941294546,-0.997246613566,1.0,0.0,0.0,0.0,1.0,0.0,0.0,0.0,1.0,0.205784708261,-0.293839991093,0.0768638849258,1.21846967915e-07,0.0,0.0,0.0,1.21846967915e-07,0.0,0.0,0.0,1.21846967915e-07,-1.06597578526,-0.969271361828,7.70060396194,9e-08,0.0,0.0,0.0,9e-08,0.0,0.0,0.0,9e-08
2768930000000,1841,2768930000000,base_link,0.04261047718,-0.0470243108294,0.0324152254834,-0.997457937865,1.0,0.0,0.0,0.0,1.0,0.0,0.0,0.0,1.0,0.203583210707,-0.260433971882,0.092882104218,1.21846967915e-07,0.0,0.0,0.0,1.21846967915e-07,0.0,0.0,0.0,1.21846967915e-07,-0.998553752899,-0.958828628063,7.71445941925,9e-08,0.0,0.0,0.0,9e-08,0.0,0.0,0.0,9e-08
2768950000000,1842,2768950000000,base_link,0.0407911742198,-0.0446132239692,0.0306033324659,-0.997701968118,1.0,0.0,0.0,0.0,1.0,0.0,0.0,0.0,1.0,0.187581852078,-0.228154689074,0.109749101102,1.21846967915e-07,0.0,0.0,0.0,1.21846967915e-07,0.0,0.0,0.0,1.21846967915e-07,-1.16230213642,-0.997834742069,7.81439590454,9e-08,0.0,0.0,0.0,9e-08,0.0,0.0,0.0,9e-08
2768970000000,1843,2768966000000,base_link,0.0391448381391,-0.042578175078,0.0286195224534,-0.997915694786,1.0,0.0,0.0,0.0,1.0,0.0,0.0,0.0,1.0,0.17004211247,-0.197865650058,0.11907351017,1.21846967915e-07,0.0,0.0,0.0,1.21846967915e-07,0.0,0.0,0.0,1.21846967915e-07,-1.12217569351,-1.06577122211,7.8617181778,9e-08,0.0,0.0,0.0,9e-08,0.0,0.0,0.0,9e-08
2768990000000,1844,2768990000000,base_link,0.0375650693837,-0.0408878594195,0.0265932705644,-0.998103163968,1.0,0.0,0.0,0.0,1.0,0.0,0.0,0.0,1.0,0.166403770447,-0.163862943649,0.123731806874,1.21846967915e-07,0.0,0.0,0.0,1.21846967915e-07,0.0,0.0,0.0,1.21846967915e-07,-1.08811223507,-1.0280315876,7.94373130798,9e-08,0.0,0.0,0.0,9e-08,0.0,0.0,0.0,9e-08
2769010000000,1845,2769010000000,base_link,0.0360930930044,-0.0394581043042,0.02445916489,-0.998269601873,1.0,0.0,0.0,0.0,1.0,0.0,0.0,0.0,1.0,0.153494760394,-0.140074670315,0.126741498709,1.21846967915e-07,0.0,0.0,0.0,1.21846967915e-07,0.0,0.0,0.0,1.21846967915e-07,-1.15304744244,-1.02474522591,8.09691143036,9e-08,0.0,0.0,0.0,9e-08,0.0,0.0,0.0,9e-08
2769030000000,1846,2769026000000,base_link,0.0346221115212,-0.038245511649,0.0223287681383,-0.99841875957,1.0,0.0,0.0,0.0,1.0,0.0,0.0,0.0,1.0,0.154299244285,-0.118176624179,0.125333994627,1.21846967915e-07,0.0,0.0,0.0,1.21846967915e-07,0.0,0.0,0.0,1.21846967915e-07,-1.11882674694,-0.954551875591,8.18820476532,9e-08,0.0,0.0,0.0,9e-08,0.0,0.0,0.0,9e-08
2769050000000,1847,2769050000000,base_link,0.0331824178168,-0.0372867019617,0.0202464609408,-0.998548318982,1.0,0.0,0.0,0.0,1.0,0.0,0.0,0.0,1.0,0.147736519575,-0.0925794094801,0.120254918933,1.21846967915e-07,0.0,0.0,0.0,1.21846967915e-07,0.0,0.0,0.0,1.21846967915e-07,-1.05664551258,-1.13895797729,8.18514442444,9e-08,0.0,0.0,0.0,9e-08,0.0,0.0,0.0,9e-08
2769070000000,1848,2769070000000,base_link,0.0318457122417,-0.0365052070294,0.0180643921529,-0.998662579089,1.0,0.0,0.0,0.0,1.0,0.0,0.0,0.0,1.0,0.137568831444,-0.0770442187786,0.12379039079,1.21846967915e-07,0.0,0.0,0.0,1.21846967915e-07,0.0,0.0,0.0,1.21846967915e-07,-1.06456923485,-0.965869307518,8.2465763092,9e-08,0.0,0.0,0.0,9e-08,0.0,0.0,0.0,9e-08
2769090000000,1849,2769090000000,base_link,0.0303850376385,-0.0357293117011,0.0155468765976,-0.998778482922,1.0,0.0,0.0,0.0,1.0,0.0,0.0,0.0,1.0,0.125673115253,-0.0668113082647,0.119402706623,1.21846967915e-07,0.0,0.0,0.0,1.21846967915e-07,0.0,0.0,0.0,1.21846967915e-07,-1.05505537987,-0.963264167309,8.24808120728,9e-08,0.0,0.0,0.0,9e-08,0.0,0.0,0.0,9e-08
2769110000000,1850,2769110000000,base_link,0.0293991482717,-0.0352380910049,0.0139390164738,-0.998849247481,1.0,0.0,0.0,0.0,1.0,0.0,0.0,0.0,1.0,0.126079186797,-0.0641018822789,0.111324571073,1.21846967915e-07,0.0,0.0,0.0,1.21846967915e-07,0.0,0.0,0.0,1.21846967915e-07,-1.06936335564,-0.985813379288,8.36146354675,9e-08,0.0,0.0,0.0,9e-08,0.0,0.0,0.0,9e-08
2769126000000,1851,2769130000000,base_link,0.028001580507,-0.0346045599929,0.0115228219423,-0.998942307722,1.0,0.0,0.0,0.0,1.0,0.0,0.0,0.0,1.0,0.117470696568,-0.0532359629869,0.111430838704,1.21846967915e-07,0.0,0.0,0.0,1.21846967915e-07,0.0,0.0,0.0,1.21846967915e-07,-1.0073517561,-0.987831890583,8.32491779327,9e-08,0.0,0.0,0.0,9e-08,0.0,0.0,0.0,9e-08
2769150000000,1852,2769146000000,base_link,0.0271190643533,-0.0342544019999,0.0100088228501,-0.998995075577,1.0,0.0,0.0,0.0,1.0,0.0,0.0,0.0,1.0,0.111669518054,-0.0475149825215,0.103248476982,1.21846967915e-07,0.0,0.0,0.0,1.21846967915e-07,0.0,0.0,0.0,1.21846967915e-07,-1.01717412472,-0.915066540241,8.35868835449,9e-08,0.0,0.0,0.0,9e-08,0.0,0.0,0.0,9e-08
2769170000000,1853,2769166000000,base_link,0.0261144787433,-0.0338797161873,0.00821876190017,-0.999050878004,1.0,0.0,0.0,0.0,1.0,0.0,0.0,0.0,1.0,0.100556828082,-0.0428487583995,0.0916314274073,1.21846967915e-07,0.0,0.0,0.0,1.21846967915e-07,0.0,0.0,0.0,1.21846967915e-07,-0.917843878269,-0.900538504124,8.33923435211,9e-08,0.0,0.0,0.0,9e-08,0.0,0.0,0.0,9e-08
2769190000000,1854,2769190000000,base_link,0.0251271621459,-0.0335603013568,0.00645546419902,-0.999099979083,1.0,0.0,0.0,0.0,1.0,0.0,0.0,0.0,1.0,0.0982140153646,-0.0367219485343,0.0935504958034,1.21846967915e-07,0.0,0.0,0.0,1.21846967915e-07,0.0,0.0,0.0,1.21846967915e-07,-1.06247997284,-0.971178770065,8.39824199677,9e-08,0.0,0.0,0.0,9e-08,0.0,0.0,0.0,9e-08
2769210000000,1855,2769210000000,base_link,0.0242098814276,-0.0332606234345,0.00482939663662,-0.999141830903,1.0,0.0,0.0,0.0,1.0,0.0,0.0,0.0,1.0,0.0906811356544,-0.0339543893933,0.0840217471123,1.21846967915e-07,0.0,0.0,0.0,1.21846967915e-07,0.0,0.0,0.0,1.21846967915e-07,-1.01753568649,-0.957575380802,8.43462944031,9e-08,0.0,0.0,0.0,9e-08,0.0,0.0,0.0,9e-08
2769230000000,1856,2769230000000,base_link,0.0232161673996,-0.0327935224248,0.00300182499149,-0.999188023849,1.0,0.0,0.0,0.0,1.0,0.0,0.0,0.0,1.0,0.0818529054523,-0.0447676517069,0.0749409645796,1.21846967915e-07,0.0,0.0,0.0,1.21846967915e-07,0.0,0.0,0.0,1.21846967915e-07,-0.965059041977,-0.927419304848,8.48002624512,9e-08,0.0,0.0,0.0,9e-08,0.0,0.0,0.0,9e-08
2769250000000,1857,2769250000000,base_link,0.0226812544155,-0.0324592356836,0.00190482681845,-0.999213902014,1.0,0.0,0.0,0.0,1.0,0.0,0.0,0.0,1.0,0.0657776892185,-0.0476189106703,0.0653349012136,1.21846967915e-07,0.0,0.0,0.0,1.21846967915e-07,0.0,0.0,0.0,1.21846967915e-07,-1.01807022095,-0.867749512196,8.35809707642,9e-08,0.0,0.0,0.0,9e-08,0.0,0.0,0.0,9e-08
2769270000000,1858,2769270000000,base_link,0.0219157254009,-0.0320016473493,0.000324741467777,-0.999247450906,1.0,0.0,0.0,0.0,1.0,0.0,0.0,0.0,1.0,0.0622113980353,-0.0425929687917,0.0599485710263,1.21846967915e-07,0.0,0.0,0.0,1.21846967915e-07,0.0,0.0,0.0,1.21846967915e-07,-0.94768768549,-0.86171579361,8.53044605255,9e-08,0.0,0.0,0.0,9e-08,0.0,0.0,0.0,9e-08
2769290000000,1859,2769290000000,base_link,0.0214493310095,-0.0317082078191,-0.0006283252176,-0.999266796309,1.0,0.0,0.0,0.0,1.0,0.0,0.0,0.0,1.0,0.0582871437073,-0.0427567735314,0.0525907799602,1.21846967915e-07,0.0,0.0,0.0,1.21846967915e-07,0.0,0.0,0.0,1.21846967915e-07,-0.965733647346,-0.802605450153,8.54974842072,9e-08,0.0,0.0,0.0,9e-08,0.0,0.0,0.0,9e-08
2769310000000,1860,2769310000000,base_link,0.020911843775,-0.0313532829516,-0.00174875703841,-0.999288038321,1.0,0.0,0.0,0.0,1.0,0.0,0.0,0.0,1.0,0.0511207692325,-0.0429193601012,0.0494526438415,1.21846967915e-07,0.0,0.0,0.0,1.21846967915e-07,0.0,0.0,0.0,1.21846967915e-07,-1.03249228001,-0.831254184246,8.50092887878,9e-08,0.0,0.0,0.0,9e-08,0.0,0.0,0.0,9e-08
2769330000000,1861,2769330000000,base_link,0.0204821625813,-0.03103233931,-0.00272947205641,-0.99930477062,1.0,0.0,0.0,0.0,1.0,0.0,0.0,0.0,1.0,0.0401140376925,-0.0388021245599,0.0370203778148,1.21846967915e-07,0.0,0.0,0.0,1.21846967915e-07,0.0,0.0,0.0,1.21846967915e-07,-0.998773515224,-0.848543763161,8.68618869781,9e-08,0.0,0.0,0.0,9e-08,0.0,0.0,0.0,9e-08
2769350000000,1862,2769350000000,base_link,0.0200144590034,-0.0307201049196,-0.00364018115904,-0.999321039303,1.0,0.0,0.0,0.0,1.0,0.0,0.0,0.0,1.0,0.0473467446864,-0.0385772995651,0.0363296084106,1.21846967915e-07,0.0,0.0,0.0,1.21846967915e-07,0.0,0.0,0.0,1.21846967915e-07,-0.97707515955,-0.849359810352,8.61343669891,9e-08,0.0,0.0,0.0,9e-08,0.0,0.0,0.0,9e-08
2769370000000,1863,2769370000000,base_link,0.0194779263291,-0.0302629308098,-0.00457204797961,-0.999341775553,1.0,0.0,0.0,0.0,1.0,0.0,0.0,0.0,1.0,0.0463038310409,-0.0461625047028,0.0199280660599,1.21846967915e-07,0.0,0.0,0.0,1.21846967915e-07,0.0,0.0,0.0,1.21846967915e-07,-0.985509037971,-0.82433450222,8.59844303131,9e-08,0.0,0.0,0.0,9e-08,0.0,0.0,0.0,9e-08
2769390000000,1864,2769390000000,base_link,0.0191309711673,-0.0299381442317,-0.00516020725058,-0.999355388985,1.0,0.0,0.0,0.0,1.0,0.0,0.0,0.0,1.0,0.0436220392585,-0.0475126504898,0.022945297882,1.21846967915e-07,0.0,0.0,0.0,1.21846967915e-07,0.0,0.0,0.0,1.21846967915e-07,-0.983892977238,-0.842038810253,8.58633422852,9e-08,0.0,0.0,0.0,9e-08,0.0,0.0,0.0,9e-08
2769410000000,1865,2769410000000,base_link,0.0188003841292,-0.0295635143954,-0.00586692560641,-0.999368875976,1.0,0.0,0.0,0.0,1.0,0.0,0.0,0.0,1.0,0.0260327979922,-0.0366630703211,0.0132762789726,1.21846967915e-07,0.0,0.0,0.0,1.21846967915e-07,0.0,0.0,0.0,1.21846967915e-07,-0.952486455441,-0.835253179073,8.59917449951,9e-08,0.0,0.0,0.0,9e-08,0.0,0.0,0.0,9e-08
2769430000000,1866,2769430000000,base_link,0.0186904905022,-0.0292823537568,-0.00646793966618,-0.999375535178,1.0,0.0,0.0,0.0,1.0,0.0,0.0,0.0,1.0,0.00922265276313,-0.0351271182299,0.0126638170332,1.21846967915e-07,0.0,0.0,0.0,1.21846967915e-07,0.0,0.0,0.0,1.21846967915e-07,-0.998435080051,-0.77288454771,8.66849040985,9e-08,0.0,0.0,0.0,9e-08,0.0,0.0,0.0,9e-08
2769450000000,1867,2769450000000,base_link,0.0186050634501,-0.0290364697012,-0.00698638804971,-0.999380803534,1.0,0.0,0.0,0.0,1.0,0.0,0.0,0.0,1.0,0.00930789299309,-0.0326692610979,0.0087344609201,1.21846967915e-07,0.0,0.0,0.0,1.21846967915e-07,0.0,0.0,0.0,1.21846967915e-07,-0.950350821018,-0.84857070446,8.67303466797,9e-08,0.0,0.0,0.0,9e-08,0.0,0.0,0.0,9e-08
2769470000000,1868,2769470000000,base_link,0.0184570180349,-0.0288473666701,-0.00737607781104,-0.999386198331,1.0,0.0,0.0,0.0,1.0,0.0,0.0,0.0,1.0,0.0196661539376,-0.028910337016,0.00924206525087,1.21846967915e-07,0.0,0.0,0.0,1.21846967915e-07,0.0,0.0,0.0,1.21846967915e-07,-0.856265664101,-0.750543057919,8.76135349274,9e-08,0.0,0.0,0.0,9e-08,0.0,0.0,0.0,9e-08
2769490000000,1869,2769490000000,base_link,0.0181762986211,-0.0285622488375,-0.00790295556428,-0.999395512784,1.0,0.0,0.0,0.0,1.0,0.0,0.0,0.0,1.0,0.0252427272499,-0.0326585583389,0.00282533373684,1.21846967915e-07,0.0,0.0,0.0,1.21846967915e-07,0.0,0.0,0.0,1.21846967915e-07,-0.899502635002,-0.756612062454,8.80396652222,9e-08,0.0,0.0,0.0,9e-08,0.0,0.0,0.0,9e-08
2769510000000,1870,2769510000000,base_link,0.0180377092465,-0.0283416785742,-0.00820004869943,-0.999401876959,1.0,0.0,0.0,0.0,1.0,0.0,0.0,0.0,1.0,0.0183435045183,-0.0349068231881,0.00133858423214,1.21846967915e-07,0.0,0.0,0.0,1.21846967915e-07,0.0,0.0,0.0,1.21846967915e-07,-0.825327813625,-0.733343839645,8.77096939087,9e-08,0.0,0.0,0.0,9e-08,0.0,0.0,0.0,9e-08
2769530000000,1871,2769530000000,base_link,0.0179076315596,-0.0279814040204,-0.00853317739006,-0.999411655027,1.0,0.0,0.0,0.0,1.0,0.0,0.0,0.0,1.0,0.0107830446213,-0.0364996269345,-0.00921050272882,1.21846967915e-07,0.0,0.0,0.0,1.21846967915e-07,0.0,0.0,0.0,1.21846967915e-07,-0.900258898735,-0.734359204769,8.78461647034,9e-08,0.0,0.0,0.0,9e-08,0.0,0.0,0.0,9e-08
2769550000000,1872,2769550000000,base_link,0.0178371215284,-0.0277415604642,-0.00873952836037,-0.999417808467,1.0,0.0,0.0,0.0,1.0,0.0,0.0,0.0,1.0,0.0133644873276,-0.0374545119703,-0.00811306666583,1.21846967915e-07,0.0,0.0,0.0,1.21846967915e-07,0.0,0.0,0.0,1.21846967915e-07,-0.926375448704,-0.751127123833,8.8109369278,9e-08,0.0,0.0,0.0,9e-08,0.0,0.0,0.0,9e-08
2769570000000,1873,2769570000000,base_link,0.0176094617042,-0.0273136471333,-0.00901533733703,-0.999431211165,1.0,0.0,0.0,0.0,1.0,0.0,0.0,0.0,1.0,0.0203993637115,-0.0441587902606,-0.00843638647348,1.21846967915e-07,0.0,0.0,0.0,1.21846967915e-07,0.0,0.0,0.0,1.21846967915e-07,-0.889694988728,-0.641394615173,8.87101840973,9e-08,0.0,0.0,0.0,9e-08,0.0,0.0,0.0,9e-08
2769590000000,1874,2769590000000,base_link,0.0173684512072,-0.0268468803349,-0.00917996292731,-0.999446552618,1.0,0.0,0.0,0.0,1.0,0.0,0.0,0.0,1.0,0.0253661200404,-0.0544467642903,-0.0145223848522,1.21846967915e-07,0.0,0.0,0.0,1.21846967915e-07,0.0,0.0,0.0,1.21846967915e-07,-0.969685435295,-0.769031345844,8.82490158081,9e-08,0.0,0.0,0.0,9e-08,0.0,0.0,0.0,9e-08
2769610000000,1875,2769610000000,base_link,0.0172200462267,-0.0264955580352,-0.0092494630805,-0.999457805826,1.0,0.0,0.0,0.0,1.0,0.0,0.0,0.0,1.0,0.0190935824066,-0.0503551736474,-0.0199474655092,1.21846967915e-07,0.0,0.0,0.0,1.21846967915e-07,0.0,0.0,0.0,1.21846967915e-07,-0.887987136841,-0.75398594141,8.83367919922,9e-08,0.0,0.0,0.0,9e-08,0.0,0.0,0.0,9e-08
2769630000000,1876,2769630000000,base_link,0.0170606405894,-0.0261697059321,-0.0092948973832,-0.999468764007,1.0,0.0,0.0,0.0,1.0,0.0,0.0,0.0,1.0,0.0168395489454,-0.0359457582235,-0.0221637450159,1.21846967915e-07,0.0,0.0,0.0,1.21846967915e-07,0.0,0.0,0.0,1.21846967915e-07,-0.863208055496,-0.707451045513,8.91207027435,9e-08,0.0,0.0,0.0,9e-08,0.0,0.0,0.0,9e-08
2769650000000,1877,2769650000000,base_link,0.0168716788161,-0.0259215100559,-0.00938981208605,-0.999477530552,1.0,0.0,0.0,0.0,1.0,0.0,0.0,0.0,1.0,0.0235909968615,-0.0281304530799,-0.0128419520333,1.21846967915e-07,0.0,0.0,0.0,1.21846967915e-07,0.0,0.0,0.0,1.21846967915e-07,-0.820170044899,-0.645054042339,8.88564586639,9e-08,0.0,0.0,0.0,9e-08,0.0,0.0,0.0,9e-08
2769670000000,1878,2769670000000,base_link,0.0166594256407,-0.025685584181,-0.0094306945291,-0.999486802858,1.0,0.0,0.0,0.0,1.0,0.0,0.0,0.0,1.0,0.0260839276016,-0.0298348888755,-0.0199005156755,1.21846967915e-07,0.0,0.0,0.0,1.21846967915e-07,0.0,0.0,0.0,1.21846967915e-07,-0.862227261066,-0.615314424038,8.88927650452,9e-08,0.0,0.0,0.0,9e-08,0.0,0.0,0.0,9e-08
2769690000000,1879,2769690000000,base_link,0.0164537190562,-0.0254164274917,-0.00951111071606,-0.999496328046,1.0,0.0,0.0,0.0,1.0,0.0,0.0,0.0,1.0,0.020980771631,-0.0353453010321,-0.0141324009746,1.21846967915e-07,0.0,0.0,0.0,1.21846967915e-07,0.0,0.0,0.0,1.21846967915e-07,-0.880849957466,-0.723095417023,9.00145149231,9e-08,0.0,0.0,0.0,9e-08,0.0,0.0,0.0,9e-08
2769710000000,1880,2769710000000,base_link,0.0162893502982,-0.0251476583559,-0.0094956849695,-0.999505937527,1.0,0.0,0.0,0.0,1.0,0.0,0.0,0.0,1.0,0.017011847347,-0.033216509968,-0.0233631357551,1.21846967915e-07,0.0,0.0,0.0,1.21846967915e-07,0.0,0.0,0.0,1.21846967915e-07,-0.870164573193,-0.739373266697,8.98285675049,9e-08,0.0,0.0,0.0,9e-08,0.0,0.0,0.0,9e-08
2769730000000,1881,2769730000000,base_link,0.0161545304324,-0.0248600324566,-0.00947149267846,-0.999515547009,1.0,0.0,0.0,0.0,1.0,0.0,0.0,0.0,1.0,0.0148237589747,-0.035989895463,-0.0214759707451,1.21846967915e-07,0.0,0.0,0.0,1.21846967915e-07,0.0,0.0,0.0,1.21846967915e-07,-0.740441918373,-0.720071017742,9.03034305573,9e-08,0.0,0.0,0.0,9e-08,0.0,0.0,0.0,9e-08
2769750000000,1882,2769750000000,base_link,0.0159778439287,-0.0246269989092,-0.00943086311649,-0.999524566435,1.0,0.0,0.0,0.0,1.0,0.0,0.0,0.0,1.0,0.0211882311851,-0.0284779369831,-0.0242262594402,1.21846967915e-07,0.0,0.0,0.0,1.21846967915e-07,0.0,0.0,0.0,1.21846967915e-07,-0.831215620041,-0.67903226614,9.12741756439,9e-08,0.0,0.0,0.0,9e-08,0.0,0.0,0.0,9e-08
2769770000000,1883,2769770000000,base_link,0.0157731906861,-0.0243680815991,-0.00937640938822,-0.999534681678,1.0,0.0,0.0,0.0,1.0,0.0,0.0,0.0,1.0,0.0250845327973,-0.0340085588396,-0.0234779026359,1.21846967915e-07,0.0,0.0,0.0,1.21846967915e-07,0.0,0.0,0.0,1.21846967915e-07,-0.828304767609,-0.691612064838,9.01935768127,9e-08,0.0,0.0,0.0,9e-08,0.0,0.0,0.0,9e-08
2769790000000,1884,2769790000000,base_link,0.0156638663709,-0.0240426980505,-0.00927323390306,-0.99954521839,1.0,0.0,0.0,0.0,1.0,0.0,0.0,0.0,1.0,0.0126923266798,-0.0392178706825,-0.0288621038198,1.21846967915e-07,0.0,0.0,0.0,1.21846967915e-07,0.0,0.0,0.0,1.21846967915e-07,-0.71796220541,-0.659653902054,9.03692245483,9e-08,0.0,0.0,0.0,9e-08,0.0,0.0,0.0,9e-08
2769810000000,1885,2769810000000,base_link,0.0155734100144,-0.0236998452916,-0.00917047988639,-0.999555755102,1.0,0.0,0.0,0.0,1.0,0.0,0.0,0.0,1.0,0.0130973225459,-0.0389421731234,-0.0266146324575,1.21846967915e-07,0.0,0.0,0.0,1.21846967915e-07,0.0,0.0,0.0,1.21846967915e-07,-0.800241887569,-0.702438652515,9.05903244019,9e-08,0.0,0.0,0.0,9e-08,0.0,0.0,0.0,9e-08
2769830000000,1886,2769830000000,base_link,0.0154112111606,-0.0233917432679,-0.00904597809589,-0.999566713283,1.0,0.0,0.0,0.0,1.0,0.0,0.0,0.0,1.0,0.0211012680084,-0.0302336625755,-0.026941973716,1.21846967915e-07,0.0,0.0,0.0,1.21846967915e-07,0.0,0.0,0.0,1.21846967915e-07,-0.792226791382,-0.672754585743,9.05585956573,9e-08,0.0,0.0,0.0,9e-08,0.0,0.0,0.0,9e-08
2769850000000,1887,2769850000000,base_link,0.015221109776,-0.0231041101246,-0.00892501664067,-0.999577418583,1.0,0.0,0.0,0.0,1.0,0.0,0.0,0.0,1.0,0.0209600515664,-0.0348685607314,-0.0284351203591,1.21846967915e-07,0.0,0.0,0.0,1.21846967915e-07,0.0,0.0,0.0,1.21846967915e-07,-0.780280828476,-0.650763452053,8.99413013458,9e-08,0.0,0.0,0.0,9e-08,0.0,0.0,0.0,9e-08
2769870000000,1888,2769870000000,base_link,0.0151194397236,-0.0228468971278,-0.00884055435625,-0.999585595071,1.0,0.0,0.0,0.0,1.0,0.0,0.0,0.0,1.0,0.0108242975548,-0.0310126207769,-0.0211595520377,1.21846967915e-07,0.0,0.0,0.0,1.21846967915e-07,0.0,0.0,0.0,1.21846967915e-07,-0.721813321114,-0.710638999939,9.07034873962,9e-08,0.0,0.0,0.0,9e-08,0.0,0.0,0.0,9e-08
2769890000000,1889,2769890000000,base_link,0.0150905411443,-0.0226100835349,-0.00877071702827,-0.999592043539,1.0,0.0,0.0,0.0,1.0,0.0,0.0,0.0,1.0,0.00554519752041,-0.0348582044244,-0.0252232309431,1.21846967915e-07,0.0,0.0,0.0,1.21846967915e-07,0.0,0.0,0.0,1.21846967915e-07,-0.731215536594,-0.63049018383,9.05326747894,9e-08,0.0,0.0,0.0,9e-08,0.0,0.0,0.0,9e-08
2769910000000,1890,2769910000000,base_link,0.0150239827094,-0.0223079729491,-0.00869814015513,-0.999600472909,1.0,0.0,0.0,0.0,1.0,0.0,0.0,0.0,1.0,0.0101511729881,-0.034374371171,-0.0229669120163,1.21846967915e-07,0.0,0.0,0.0,1.21846967915e-07,0.0,0.0,0.0,1.21846967915e-07,-0.731890797615,-0.644723594189,9.0946559906,9e-08,0.0,0.0,0.0,9e-08,0.0,0.0,0.0,9e-08
2769930000000,1891,2769930000000,base_link,0.0148973159538,-0.022069771803,-0.0085843015173,-0.99960860725,1.0,0.0,0.0,0.0,1.0,0.0,0.0,0.0,1.0,0.0168418157846,-0.0280098617077,-0.0270258262753,1.21846967915e-07,0.0,0.0,0.0,1.21846967915e-07,0.0,0.0,0.0,1.21846967915e-07,-0.718667149544,-0.671907067299,9.16090679169,9e-08,0.0,0.0,0.0,9e-08,0.0,0.0,0.0,9e-08
2769950000000,1892,2769950000000,base_link,0.0148173719433,-0.021829639475,-0.00848390772415,-0.999615940802,1.0,0.0,0.0,0.0,1.0,0.0,0.0,0.0,1.0,0.0090636042878,-0.0292155388743,-0.0252792555839,1.21846967915e-07,0.0,0.0,0.0,1.21846967915e-07,0.0,0.0,0.0,1.21846967915e-07,-0.712048351765,-0.602511942387,9.16850757599,9e-08,0.0,0.0,0.0,9e-08,0.0,0.0,0.0,9e-08
2769970000000,1893,2769970000000,base_link,0.0148166379954,-0.0216176266683,-0.00834684617279,-0.999621672773,1.0,0.0,0.0,0.0,1.0,0.0,0.0,0.0,1.0,0.000367760949302,-0.02865601331,-0.0299482643604,1.21846967915e-07,0.0,0.0,0.0,1.21846967915e-07,0.0,0.0,0.0,1.21846967915e-07,-0.75046902895,-0.598325312138,9.22417354584,9e-08,0.0,0.0,0.0,9e-08,0.0,0.0,0.0,9e-08
2769990000000,1894,2769990000000,base_link,0.0147714588787,-0.021367061349,-0.00818592950518,-0.999629090619,1.0,0.0,0.0,0.0,1.0,0.0,0.0,0.0,1.0,0.0063366512768,-0.027146641165,-0.0276094246656,1.21846967915e-07,0.0,0.0,0.0,1.21846967915e-07,0.0,0.0,0.0,1.21846967915e-07,-0.691048741341,-0.574874281883,9.20747661591,9e-08,0.0,0.0,0.0,9e-08,0.0,0.0,0.0,9e-08
2770010000000,1895,2770010000000,base_link,0.01469316551,-0.0211804881166,-0.0080325149766,-0.99963549694,1.0,0.0,0.0,0.0,1.0,0.0,0.0,0.0,1.0,0.0113003877923,-0.0233502984047,-0.0292394217104,1.21846967915e-07,0.0,0.0,0.0,1.21846967915e-07,0.0,0.0,0.0,1.21846967915e-07,-0.625484228134,-0.566147744656,9.22533130646,9e-08,0.0,0.0,0.0,9e-08,0.0,0.0,0.0,9e-08
2770030000000,1896,2770030000000,base_link,0.0146027193609,-0.0210134907783,-0.00789815082355,-0.999641397499,1.0,0.0,0.0,0.0,1.0,0.0,0.0,0.0,1.0,0.0142673160881,-0.0261875391006,-0.0317145250738,1.21846967915e-07,0.0,0.0,0.0,1.21846967915e-07,0.0,0.0,0.0,1.21846967915e-07,-0.707530498505,-0.575203239918,9.22282409668,9e-08,0.0,0.0,0.0,9e-08,0.0,0.0,0.0,9e-08
2770050000000,1897,2770050000000,base_link,0.0144924467416,-0.0208011213698,-0.00776698983098,-0.999648393875,1.0,0.0,0.0,0.0,1.0,0.0,0.0,0.0,1.0,0.0136068305001,-0.0266731232405,-0.0302086155862,1.21846967915e-07,0.0,0.0,0.0,1.21846967915e-07,0.0,0.0,0.0,1.21846967915e-07,-0.700219511986,-0.583099544048,9.30627727509,9e-08,0.0,0.0,0.0,9e-08,0.0,0.0,0.0,9e-08
2770070000000,1898,2770070000000,base_link,0.0143523269095,-0.0205653703384,-0.00765610147255,-0.999656191042,1.0,0.0,0.0,0.0,1.0,0.0,0.0,0.0,1.0,0.0160693787038,-0.0310625415295,-0.025087563321,1.21846967915e-07,0.0,0.0,0.0,1.21846967915e-07,0.0,0.0,0.0,1.21846967915e-07,-0.686928927898,-0.67043697834,9.37683296204,9e-08,0.0,0.0,0.0,9e-08,0.0,0.0,0.0,9e-08
2770090000000,1899,2770086000000,base_link,0.0141566947389,-0.0202983749922,-0.00757547455135,-0.999665084027,1.0,0.0,0.0,0.0,1.0,0.0,0.0,0.0,1.0,0.0216189157218,-0.0317322947085,-0.022687016055,1.21846967915e-07,0.0,0.0,0.0,1.21846967915e-07,0.0,0.0,0.0,1.21846967915e-07,-0.667191147804,-0.547067761421,9.28360843658,9e-08,0.0,0.0,0.0,9e-08,0.0,0.0,0.0,9e-08
2770110000000,1900,2770110000000,base_link,0.0139809153803,-0.0200809716694,-0.00751807054368,-0.999672333285,1.0,0.0,0.0,0.0,1.0,0.0,0.0,0.0,1.0,0.0202606096864,-0.0253959205002,-0.0216778386384,1.21846967915e-07,0.0,0.0,0.0,1.21846967915e-07,0.0,0.0,0.0,1.21846967915e-07,-0.755122363567,-0.614193677902,9.32820606232,9e-08,0.0,0.0,0.0,9e-08,0.0,0.0,0.0,9e-08
2770130000000,1901,2770130000000,base_link,0.0138572466486,-0.0199061221756,-0.0074312058889,-0.999678275991,1.0,0.0,0.0,0.0,1.0,0.0,0.0,0.0,1.0,0.0143700316548,-0.0207957085222,-0.0236461758614,1.21846967915e-07,0.0,0.0,0.0,1.21846967915e-07,0.0,0.0,0.0,1.21846967915e-07,-0.693263232708,-0.589914560318,9.29934883118,9e-08,0.0,0.0,0.0,9e-08,0.0,0.0,0.0,9e-08
2770150000000,1902,2770150000000,base_link,0.0137733230536,-0.0196466912009,-0.00726316640388,-0.999685735983,1.0,0.0,0.0,0.0,1.0,0.0,0.0,0.0,1.0,0.00752401305363,-0.0294216051698,-0.0277869217098,1.21846967915e-07,0.0,0.0,0.0,1.21846967915e-07,0.0,0.0,0.0,1.21846967915e-07,-0.648622095585,-0.610460519791,9.22081375122,9e-08,0.0,0.0,0.0,9e-08,0.0,0.0,0.0,9e-08
2770170000000,1903,2770170000000,base_link,0.0136754972547,-0.0194879111809,-0.00716568074328,-0.999690920046,1.0,0.0,0.0,0.0,1.0,0.0,0.0,0.0,1.0,0.0157471261919,-0.0209717061371,-0.0272771921009,1.21846967915e-07,0.0,0.0,0.0,1.21846967915e-07,0.0,0.0,0.0,1.21846967915e-07,-0.690106391907,-0.556474506855,9.16363716125,9e-08,0.0,0.0,0.0,9e-08,0.0,0.0,0.0,9e-08
2770190000000,1904,2770190000000,base_link,0.0135650991827,-0.0194300669363,-0.00704282267987,-0.999694418234,1.0,0.0,0.0,0.0,1.0,0.0,0.0,0.0,1.0,0.0135722700506,-0.00810643658042,-0.0226121246815,1.21846967915e-07,0.0,0.0,0.0,1.21846967915e-07,0.0,0.0,0.0,1.21846967915e-07,-0.688456177711,-0.515664517879,9.26536369324,9e-08,0.0,0.0,0.0,9e-08,0.0,0.0,0.0,9e-08
2770210000000,1905,2770206000000,base_link,0.0135095097944,-0.0194238848497,-0.00690976507912,-0.999696230549,1.0,0.0,0.0,0.0,1.0,0.0,0.0,0.0,1.0,0.00525133032352,-0.00537401204929,-0.024651851505,1.21846967915e-07,0.0,0.0,0.0,1.21846967915e-07,0.0,0.0,0.0,1.21846967915e-07,-0.651132047176,-0.575815737247,9.34356784821,9e-08,0.0,0.0,0.0,9e-08,0.0,0.0,0.0,9e-08
2770230000000,1906,2770230000000,base_link,0.0135261225674,-0.0194036579844,-0.00674969134847,-0.999697494954,1.0,0.0,0.0,0.0,1.0,0.0,0.0,0.0,1.0,-0.00109074043576,-0.00692119076848,-0.0266711954027,1.21846967915e-07,0.0,0.0,0.0,1.21846967915e-07,0.0,0.0,0.0,1.21846967915e-07,-0.731002986431,-0.53923791647,9.24679851532,9e-08,0.0,0.0,0.0,9e-08,0.0,0.0,0.0,9e-08
2770250000000,1907,2770250000000,base_link,0.0134961166455,-0.0194017218636,-0.00664225903162,-0.999698632919,1.0,0.0,0.0,0.0,1.0,0.0,0.0,0.0,1.0,0.00562453921884,-0.00597081892192,-0.019076930359,1.21846967915e-07,0.0,0.0,0.0,1.21846967915e-07,0.0,0.0,0.0,1.21846967915e-07,-0.703835785389,-0.522973716259,9.34628772736,9e-08,0.0,0.0,0.0,9e-08,0.0,0.0,0.0,9e-08
2770270000000,1908,2770270000000,base_link,0.0134040340133,-0.0193798394174,-0.00654253958804,-0.999700993142,1.0,0.0,0.0,0.0,1.0,0.0,0.0,0.0,1.0,0.0123610980809,-0.00704006385058,-0.0191529989243,1.21846967915e-07,0.0,0.0,0.0,1.21846967915e-07,0.0,0.0,0.0,1.21846967915e-07,-0.650842130184,-0.544460594654,9.23537826538,9e-08,0.0,0.0,0.0,9e-08,0.0,0.0,0.0,9e-08
2770290000000,1909,2770290000000,base_link,0.0133445085045,-0.0193416184819,-0.00637934699061,-0.999703606247,1.0,0.0,0.0,0.0,1.0,0.0,0.0,0.0,1.0,0.00796800665557,-0.00833019427955,-0.0265246294439,1.21846967915e-07,0.0,0.0,0.0,1.21846967915e-07,0.0,0.0,0.0,1.21846967915e-07,-0.646083474159,-0.500142216682,9.26101398468,9e-08,0.0,0.0,0.0,9e-08,0.0,0.0,0.0,9e-08
2770310000000,1910,2770310000000,base_link,0.0133292539795,-0.0192940478609,-0.00623082149646,-0.999705629296,1.0,0.0,0.0,0.0,1.0,0.0,0.0,0.0,1.0,0.000974369584583,-0.00980896130204,-0.0223234612495,1.21846967915e-07,0.0,0.0,0.0,1.21846967915e-07,0.0,0.0,0.0,1.21846967915e-07,-0.58323943615,-0.540159404278,9.30634593964,9e-08,0.0,0.0,0.0,9e-08,0.0,0.0,0.0,9e-08
2770330000000,1911,2770330000000,base_link,0.013390513436,-0.0192767791775,-0.00607892425442,-0.999706050764,1.0,0.0,0.0,0.0,1.0,0.0,0.0,0.0,1.0,-0.00457285670564,-0.00537700206041,-0.0203567352146,1.21846967915e-07,0.0,0.0,0.0,1.21846967915e-07,0.0,0.0,0.0,1.21846967915e-07,-0.638256311417,-0.534582614899,9.32564067841,9e-08,0.0,0.0,0.0,9e-08,0.0,0.0,0.0,9e-08
2770350000000,1912,2770350000000,base_link,0.0134599839547,-0.0193221904311,-0.00594793184925,-0.99970503924,1.0,0.0,0.0,0.0,1.0,0.0,0.0,0.0,1.0,-0.00386444758624,-0.000998908886686,-0.021926805377,1.21846967915e-07,0.0,0.0,0.0,1.21846967915e-07,0.0,0.0,0.0,1.21846967915e-07,-0.621206045151,-0.507936239243,9.35067272186,9e-08,0.0,0.0,0.0,9e-08,0.0,0.0,0.0,9e-08
2770370000000,1913,2770370000000,base_link,0.0134326965044,-0.0193998170236,-0.00584125817567,-0.999704491331,1.0,0.0,0.0,0.0,1.0,0.0,0.0,0.0,1.0,0.00514825619757,0.00399555265903,-0.0208000428975,1.21846967915e-07,0.0,0.0,0.0,1.21846967915e-07,0.0,0.0,0.0,1.21846967915e-07,-0.658695936203,-0.499547541142,9.42918872833,9e-08,0.0,0.0,0.0,9e-08,0.0,0.0,0.0,9e-08
2770390000000,1914,2770390000000,base_link,0.0133730850556,-0.0193939480749,-0.00568501980824,-0.999706303645,1.0,0.0,0.0,0.0,1.0,0.0,0.0,0.0,1.0,0.00981078483164,-0.0110963899642,-0.0216063987464,1.21846967915e-07,0.0,0.0,0.0,1.21846967915e-07,0.0,0.0,0.0,1.21846967915e-07,-0.630184292793,-0.432109087706,9.51117420197,9e-08,0.0,0.0,0.0,9e-08,0.0,0.0,0.0,9e-08
2770410000000,1915,2770410000000,base_link,0.013369788711,-0.0192880524717,-0.00552368167214,-0.999709338218,1.0,0.0,0.0,0.0,1.0,0.0,0.0,0.0,1.0,0.000379302306101,-0.0183101538569,-0.0221891459078,1.21846967915e-07,0.0,0.0,0.0,1.21846967915e-07,0.0,0.0,0.0,1.21846967915e-07,-0.562379717827,-0.495731711388,9.31684875488,9e-08,0.0,0.0,0.0,9e-08,0.0,0.0,0.0,9e-08
2770430000000,1916,2770430000000,base_link,0.0135024271482,-0.0191364453185,-0.00536613675241,-0.999711361267,1.0,0.0,0.0,0.0,1.0,0.0,0.0,0.0,1.0,-0.012125861831,-0.0198748726398,-0.0198656022549,1.21846967915e-07,0.0,0.0,0.0,1.21846967915e-07,0.0,0.0,0.0,1.21846967915e-07,-0.653199613094,-0.446501404047,9.40757465363,9e-08,0.0,0.0,0.0,9e-08,0.0,0.0,0.0,9e-08
2770450000000,1917,2770450000000,base_link,0.0135761879197,-0.0189418548006,-0.00521499815365,-0.999714817309,1.0,0.0,0.0,0.0,1.0,0.0,0.0,0.0,1.0,-0.00113373761997,-0.0224375501275,-0.0207262486219,1.21846967915e-07,0.0,0.0,0.0,1.21846967915e-07,0.0,0.0,0.0,1.21846967915e-07,-0.589515447617,-0.471037149429,9.44564342499,9e-08,0.0,0.0,0.0,9e-08,0.0,0.0,0.0,9e-08
2770470000000,1918,2770470000000,base_link,0.0134935565537,-0.0187487404103,-0.00505850690513,-0.999720338546,1.0,0.0,0.0,0.0,1.0,0.0,0.0,0.0,1.0,0.0103570455685,-0.0242626499385,-0.0152136161923,1.21846967915e-07,0.0,0.0,0.0,1.21846967915e-07,0.0,0.0,0.0,1.21846967915e-07,-0.616841673851,-0.466573953629,9.52851390839,9e-08,0.0,0.0,0.0,9e-08,0.0,0.0,0.0,9e-08
2770490000000,1919,2770490000000,base_link,0.0133833603255,-0.0185807094864,-0.00494909368639,-0.999725564755,1.0,0.0,0.0,0.0,1.0,0.0,0.0,0.0,1.0,0.0161636285484,-0.0279258266091,-0.0183146800846,1.21846967915e-07,0.0,0.0,0.0,1.21846967915e-07,0.0,0.0,0.0,1.21846967915e-07,-0.486958712339,-0.510421812534,9.36134433746,9e-08,0.0,0.0,0.0,9e-08,0.0,0.0,0.0,9e-08
2770510000000,1920,2770510000000,base_link,0.0132326777688,-0.018357981502,-0.00480903970879,-0.999732350398,1.0,0.0,0.0,0.0,1.0,0.0,0.0,0.0,1.0,0.0148350773379,-0.0316526703537,-0.0181045811623,1.21846967915e-07,0.0,0.0,0.0,1.21846967915e-07,0.0,0.0,0.0,1.21846967915e-07,-0.662516474724,-0.4984549582,9.41033172607,9e-08,0.0,0.0,0.0,9e-08,0.0,0.0,0.0,9e-08
2770530000000,1921,2770530000000,base_link,0.0130180785286,-0.0180312808643,-0.00465372857203,-0.999741833439,1.0,0.0,0.0,0.0,1.0,0.0,0.0,0.0,1.0,0.0221228767186,-0.0321165546775,-0.0201153233647,1.21846967915e-07,0.0,0.0,0.0,1.21846967915e-07,0.0,0.0,0.0,1.21846967915e-07,-0.486076235771,-0.509461700916,9.37070941925,9e-08,0.0,0.0,0.0,9e-08,0.0,0.0,0.0,9e-08
2770550000000,1922,2770550000000,base_link,0.0129032397263,-0.0178629060155,-0.0045922784669,-0.999746638179,1.0,0.0,0.0,0.0,1.0,0.0,0.0,0.0,1.0,0.0166092161089,-0.0273480303586,-0.0121255721897,1.21846967915e-07,0.0,0.0,0.0,1.21846967915e-07,0.0,0.0,0.0,1.21846967915e-07,-0.595556676388,-0.461471199989,9.39626121521,9e-08,0.0,0.0,0.0,9e-08,0.0,0.0,0.0,9e-08
2770570000000,1923,2770570000000,base_link,0.0127420298417,-0.0176683332783,-0.00442971807219,-0.99975291806,1.0,0.0,0.0,0.0,1.0,0.0,0.0,0.0,1.0,0.0180183053017,-0.0269448310137,-0.0221007280052,1.21846967915e-07,0.0,0.0,0.0,1.21846967915e-07,0.0,0.0,0.0,1.21846967915e-07,-0.620060324669,-0.500992715359,9.45521354675,9e-08,0.0,0.0,0.0,9e-08,0.0,0.0,0.0,9e-08
2770590000000,1924,2770590000000,base_link,0.0126015583469,-0.0174996497368,-0.00431941976964,-0.999758102122,1.0,0.0,0.0,0.0,1.0,0.0,0.0,0.0,1.0,0.0113262496889,-0.0229363180697,-0.013289609924,1.21846967915e-07,0.0,0.0,0.0,1.21846967915e-07,0.0,0.0,0.0,1.21846967915e-07,-0.547978758812,-0.424199104309,9.39973831177,9e-08,0.0,0.0,0.0,9e-08,0.0,0.0,0.0,9e-08
2770610000000,1925,2770610000000,base_link,0.0125301209204,-0.0172801553705,-0.00422328280819,-0.999763286184,1.0,0.0,0.0,0.0,1.0,0.0,0.0,0.0,1.0,0.00740633159876,-0.0251742955297,-0.0119275413454,1.21846967915e-07,0.0,0.0,0.0,1.21846967915e-07,0.0,0.0,0.0,1.21846967915e-07,-0.554154038429,-0.51514929533,9.48856830597,9e-08,0.0,0.0,0.0,9e-08,0.0,0.0,0.0,9e-08
2770630000000,1926,2770630000000,base_link,0.012476952671,-0.0171210799934,-0.00414341453026,-0.999767037254,1.0,0.0,0.0,0.0,1.0,0.0,0.0,0.0,1.0,0.00929585192353,-0.0245017297566,-0.0126859722659,1.21846967915e-07,0.0,0.0,0.0,1.21846967915e-07,0.0,0.0,0.0,1.21846967915e-07,-0.626179754734,-0.462476730347,9.38747215271,9e-08,0.0,0.0,0.0,9e-08,0.0,0.0,0.0,9e-08
2770650000000,1927,2770650000000,base_link,0.012465243585,-0.0169709846937,-0.00408251233416,-0.999769945387,1.0,0.0,0.0,0.0,1.0,0.0,0.0,0.0,1.0,0.000876441830769,-0.0181706398726,-0.00972058903426,1.21846967915e-07,0.0,0.0,0.0,1.21846967915e-07,0.0,0.0,0.0,1.21846967915e-07,-0.607113659382,-0.46486350894,9.48098754883,9e-08,0.0,0.0,0.0,9e-08,0.0,0.0,0.0,9e-08
2770670000000,1928,2770670000000,base_link,0.0124081323004,-0.0168828763777,-0.00396808364045,-0.999772600638,1.0,0.0,0.0,0.0,1.0,0.0,0.0,0.0,1.0,0.00951380841434,-0.0152432993054,-0.0165726300329,1.21846967915e-07,0.0,0.0,0.0,1.21846967915e-07,0.0,0.0,0.0,1.21846967915e-07,-0.549353778362,-0.472214519978,9.49518585205,9e-08,0.0,0.0,0.0,9e-08,0.0,0.0,0.0,9e-08
2770690000000,1929,2770690000000,base_link,0.0123283367916,-0.0167865981584,-0.00388016531446,-0.999775635211,1.0,0.0,0.0,0.0,1.0,0.0,0.0,0.0,1.0,0.0100619867444,-0.0154242236167,-0.0132041787729,1.21846967915e-07,0.0,0.0,0.0,1.21846967915e-07,0.0,0.0,0.0,1.21846967915e-07,-0.539568841457,-0.379884034395,9.56077671051,9e-08,0.0,0.0,0.0,9e-08,0.0,0.0,0.0,9e-08
2770710000000,1930,2770710000000,base_link,0.0123095677792,-0.0167275614543,-0.00376459865584,-0.999777236791,1.0,0.0,0.0,0.0,1.0,0.0,0.0,0.0,1.0,0.0025627927389,-0.0110276155174,-0.0170123372227,1.21846967915e-07,0.0,0.0,0.0,1.21846967915e-07,0.0,0.0,0.0,1.21846967915e-07,-0.514162540436,-0.395796060562,9.52328872681,9e-08,0.0,0.0,0.0,9e-08,0.0,0.0,0.0,9e-08
2770730000000,1931,2770730000000,base_link,0.0122748646239,-0.016724732841,-0.00364835764765,-0.999778164022,1.0,0.0,0.0,0.0,1.0,0.0,0.0,0.0,1.0,0.00700210873038,-0.00582168344408,-0.015480033122,1.21846967915e-07,0.0,0.0,0.0,1.21846967915e-07,0.0,0.0,0.0,1.21846967915e-07,-0.475547343493,-0.41756606102,9.50710678101,9e-08,0.0,0.0,0.0,9e-08,0.0,0.0,0.0,9e-08
2770750000000,1932,2770750000000,base_link,0.0122026259134,-0.0166834226733,-0.00355824768553,-0.999780102777,1.0,0.0,0.0,0.0,1.0,0.0,0.0,0.0,1.0,0.0102969212458,-0.0116062164307,-0.0139287663624,1.21846967915e-07,0.0,0.0,0.0,1.21846967915e-07,0.0,0.0,0.0,1.21846967915e-07,-0.468006342649,-0.427090674639,9.54051685333,9e-08,0.0,0.0,0.0,9e-08,0.0,0.0,0.0,9e-08
2770770000000,1933,2770770000000,base_link,0.0120193531415,-0.0165679796564,-0.00350290887344,-0.999784443902,1.0,0.0,0.0,0.0,1.0,0.0,0.0,0.0,1.0,0.018626511097,-0.0221372060478,-0.0113343968987,1.21846967915e-07,0.0,0.0,0.0,1.21846967915e-07,0.0,0.0,0.0,1.21846967915e-07,-0.513958096504,-0.459876090288,9.56354522705,9e-08,0.0,0.0,0.0,9e-08,0.0,0.0,0.0,9e-08
2770790000000,1934,2770790000000,base_link,0.0118387911034,-0.0164281229129,-0.00342552725957,-0.999789080056,1.0,0.0,0.0,0.0,1.0,0.0,0.0,0.0,1.0,0.0199388749897,-0.0197831317782,-0.0118177337572,1.21846967915e-07,0.0,0.0,0.0,1.21846967915e-07,0.0,0.0,0.0,1.21846967915e-07,-0.571220755577,-0.432111352682,9.52820301056,9e-08,0.0,0.0,0.0,9e-08,0.0,0.0,0.0,9e-08
2770810000000,1935,2770810000000,base_link,0.011619141156,-0.0162106652601,-0.00331872714544,-0.99979557067,1.0,0.0,0.0,0.0,1.0,0.0,0.0,0.0,1.0,0.0194186251611,-0.024950183928,-0.0101518258452,1.21846967915e-07,0.0,0.0,0.0,1.21846967915e-07,0.0,0.0,0.0,1.21846967915e-07,-0.545917987823,-0.433005899191,9.51352119446,9e-08,0.0,0.0,0.0,9e-08,0.0,0.0,0.0,9e-08
2770830000000,1936,2770830000000,base_link,0.0115260972134,-0.0160235248563,-0.00324657174079,-0.999799953943,1.0,0.0,0.0,0.0,1.0,0.0,0.0,0.0,1.0,0.0115599948913,-0.0295440051705,-0.0141131998971,1.21846967915e-07,0.0,0.0,0.0,1.21846967915e-07,0.0,0.0,0.0,1.21846967915e-07,-0.549447894096,-0.380080342293,9.5840139389,9e-08,0.0,0.0,0.0,9e-08,0.0,0.0,0.0,9e-08
2770850000000,1937,2770850000000,base_link,0.0114865858601,-0.0157237883235,-0.00314689444407,-0.99980547518,1.0,0.0,0.0,0.0,1.0,0.0,0.0,0.0,1.0,0.00540662137792,-0.0385932996869,-0.0138195492327,1.21846967915e-07,0.0,0.0,0.0,1.21846967915e-07,0.0,0.0,0.0,1.21846967915e-07,-0.492387354374,-0.445959240198,9.57065677643,9e-08,0.0,0.0,0.0,9e-08,0.0,0.0,0.0,9e-08
2770870000000,1938,2770870000000,base_link,0.0114603313369,-0.0154753375906,-0.00307351678081,-0.999809900599,1.0,0.0,0.0,0.0,1.0,0.0,0.0,0.0,1.0,0.00473803002387,-0.0295582637191,-0.0125383771956,1.21846967915e-07,0.0,0.0,0.0,1.21846967915e-07,0.0,0.0,0.0,1.21846967915e-07,-0.502174437046,-0.364591211081,9.57121562958,9e-08,0.0,0.0,0.0,9e-08,0.0,0.0,0.0,9e-08
2770890000000,1939,2770890000000,base_link,0.0113688127481,-0.0153500712299,-0.00302243480041,-0.999813019466,1.0,0.0,0.0,0.0,1.0,0.0,0.0,0.0,1.0,0.0122634125873,-0.0157528277487,-0.00906316470355,1.21846967915e-07,0.0,0.0,0.0,1.21846967915e-07,0.0,0.0,0.0,1.21846967915e-07,-0.57495290041,-0.378406256437,9.50575733185,9e-08,0.0,0.0,0.0,9e-08,0.0,0.0,0.0,9e-08
2770910000000,1940,2770910000000,base_link,0.0111494673775,-0.0152519322932,-0.00291226293841,-0.999817318444,1.0,0.0,0.0,0.0,1.0,0.0,0.0,0.0,1.0,0.0216909945011,-0.0152436234057,-0.0112842982635,1.21846967915e-07,0.0,0.0,0.0,1.21846967915e-07,0.0,0.0,0.0,1.21846967915e-07,-0.4921618402,-0.424033105373,9.53053665161,9e-08,0.0,0.0,0.0,9e-08,0.0,0.0,0.0,9e-08
2770930000000,1941,2770930000000,base_link,0.011071907792,-0.015146158356,-0.00281680032653,-0.999820057989,1.0,0.0,0.0,0.0,1.0,0.0,0.0,0.0,1.0,0.0103827072307,-0.0170018859208,-0.0148780522868,1.21846967915e-07,0.0,0.0,0.0,1.21846967915e-07,0.0,0.0,0.0,1.21846967915e-07,-0.470654010773,-0.389331489801,9.52102947235,9e-08,0.0,0.0,0.0,9e-08,0.0,0.0,0.0,9e-08
2770950000000,1942,2770950000000,base_link,0.011043801277,-0.0151805895325,-0.00278843549748,-0.999819931549,1.0,0.0,0.0,0.0,1.0,0.0,0.0,0.0,1.0,0.00486939679831,-0.000996073824354,-0.00870410911739,1.21846967915e-07,0.0,0.0,0.0,1.21846967915e-07,0.0,0.0,0.0,1.21846967915e-07,-0.455001622438,-0.349323898554,9.64644432068,9e-08,0.0,0.0,0.0,9e-08,0.0,0.0,0.0,9e-08
2770970000000,1943,2770970000000,base_link,0.0108847601442,-0.015161702476,-0.0027285869726,-0.999822123185,1.0,0.0,0.0,0.0,1.0,0.0,0.0,0.0,1.0,0.0210897941142,-0.0130339423195,-0.0145609807223,1.21846967915e-07,0.0,0.0,0.0,1.21846967915e-07,0.0,0.0,0.0,1.21846967915e-07,-0.447871506214,-0.386763066053,9.50405693054,9e-08,0.0,0.0,0.0,9e-08,0.0,0.0,0.0,9e-08
2770990000000,1944,2770990000000,base_link,0.0105668448195,-0.014961211564,-0.00264176446466,-0.999828782387,1.0,0.0,0.0,0.0,1.0,0.0,0.0,0.0,1.0,0.0289923660457,-0.0259189605713,-0.012423645705,1.21846967915e-07,0.0,0.0,0.0,1.21846967915e-07,0.0,0.0,0.0,1.21846967915e-07,-0.47465518117,-0.370654672384,9.53331947327,9e-08,0.0,0.0,0.0,9e-08,0.0,0.0,0.0,9e-08
2771010000000,1945,2771010000000,base_link,0.0103566899315,-0.014788665165,-0.00260071343421,-0.999833671422,1.0,0.0,0.0,0.0,1.0,0.0,0.0,0.0,1.0,0.028900584206,-0.0273349359632,-0.00897751376033,1.21846967915e-07,0.0,0.0,0.0,1.21846967915e-07,0.0,0.0,0.0,1.21846967915e-07,-0.467493742704,-0.380301594734,9.49411392212,9e-08,0.0,0.0,0.0,9e-08,0.0,0.0,0.0,9e-08
2771026000000,1946,2771030000000,base_link,0.0102523193527,-0.0145204180903,-0.00251574538762,-0.999838897631,1.0,0.0,0.0,0.0,1.0,0.0,0.0,0.0,1.0,0.00782906450331,-0.0259760171175,-0.0102526713163,1.21846967915e-07,0.0,0.0,0.0,1.21846967915e-07,0.0,0.0,0.0,1.21846967915e-07,-0.482109129429,-0.427575856447,9.58482551575,9e-08,0.0,0.0,0.0,9e-08,0.0,0.0,0.0,9e-08
2771050000000,1947,2771050000000,base_link,0.0102138397739,-0.0144086388858,-0.00247701243383,-0.999840962826,1.0,0.0,0.0,0.0,1.0,0.0,0.0,0.0,1.0,0.00632353965193,-0.0194198768586,-0.00901888497174,1.21846967915e-07,0.0,0.0,0.0,1.21846967915e-07,0.0,0.0,0.0,1.21846967915e-07,-0.454756319523,-0.467442303896,9.59064292908,9e-08,0.0,0.0,0.0,9e-08,0.0,0.0,0.0,9e-08
2771074000000,1948,2771070000000,base_link,0.0100477550136,-0.0142852801639,-0.00242112571271,-0.999844587455,1.0,0.0,0.0,0.0,1.0,0.0,0.0,0.0,1.0,0.019736263901,-0.0157546531409,-0.0104250209406,1.21846967915e-07,0.0,0.0,0.0,1.21846967915e-07,0.0,0.0,0.0,1.21846967915e-07,-0.440069377422,-0.394712179899,9.50609397888,9e-08,0.0,0.0,0.0,9e-08,0.0,0.0,0.0,9e-08
2771090000000,1949,2771090000000,base_link,0.00972772641961,-0.0168669771376,-0.00236443820146,-0.999807624669,1.0,0.0,0.0,0.0,1.0,0.0,0.0,0.0,1.0,0.0376682393253,0.321863681078,-0.0071138124913,1.21846967915e-07,0.0,0.0,0.0,1.21846967915e-07,0.0,0.0,0.0,1.21846967915e-07,-1.43840169907,-0.32921025157,11.8146572113,9e-08,0.0,0.0,0.0,9e-08,0.0,0.0,0.0,9e-08
2771110000000,1950,2771110000000,base_link,0.00911630208827,-0.0289153439391,-0.00229295714639,-0.999537716251,1.0,0.0,0.0,0.0,1.0,0.0,0.0,0.0,1.0,0.0845672190189,1.5617556572,0.00183760328218,1.21846967915e-07,0.0,0.0,0.0,1.21846967915e-07,0.0,0.0,0.0,1.21846967915e-07,-1.99290752411,-0.279193878174,12.8116188049,9e-08,0.0,0.0,0.0,9e-08,0.0,0.0,0.0,9e-08
2771130000000,1951,2771130000000,base_link,0.00833733020465,-0.050218951232,-0.00227647772862,-0.998700890574,1.0,0.0,0.0,0.0,1.0,0.0,0.0,0.0,1.0,0.0808462277055,2.17344689369,0.0146258119494,1.21846967915e-07,0.0,0.0,0.0,1.21846967915e-07,0.0,0.0,0.0,1.21846967915e-07,0.0643747746944,-0.507551133633,12.3846960068,9e-08,0.0,0.0,0.0,9e-08,0.0,0.0,0.0,9e-08
2771150000000,1952,2771150000000,base_link,0.00874499164561,-0.0611080202329,-0.00216550507649,-0.998090477767,1.0,0.0,0.0,0.0,1.0,0.0,0.0,0.0,1.0,-0.0608230307698,0.514160513878,-0.015181992203,1.21846967915e-07,0.0,0.0,0.0,1.21846967915e-07,0.0,0.0,0.0,1.21846967915e-07,0.88811314106,-0.419371962547,11.9133462906,9e-08,0.0,0.0,0.0,9e-08,0.0,0.0,0.0,9e-08
2771170000000,1953,2771170000000,base_link,0.00986565527409,-0.0543936426752,-0.00209726932875,-0.998468661439,1.0,0.0,0.0,0.0,1.0,0.0,0.0,0.0,1.0,-0.116339690983,-0.856998205185,-0.0267796479166,1.21846967915e-07,0.0,0.0,0.0,1.21846967915e-07,0.0,0.0,0.0,1.21846967915e-07,0.371777892113,-0.318264693022,9.58902835846,9e-08,0.0,0.0,0.0,9e-08,0.0,0.0,0.0,9e-08
2771190000000,1954,2771190000000,base_link,0.0103692969429,-0.0453818851861,-0.00203105662974,-0.9989138586,1.0,0.0,0.0,0.0,1.0,0.0,0.0,0.0,1.0,-0.0595964938402,-1.16226279736,-0.0295780226588,1.21846967915e-07,0.0,0.0,0.0,1.21846967915e-07,0.0,0.0,0.0,1.21846967915e-07,-0.51810246706,-0.251142531633,8.41052818298,9e-08,0.0,0.0,0.0,9e-08,0.0,0.0,0.0,9e-08
2771210000000,1955,2771210000000,base_link,0.0102247793506,-0.0356287053627,-0.00192248634798,-0.999310966206,1.0,0.0,0.0,0.0,1.0,0.0,0.0,0.0,1.0,0.0391009673476,-0.881988406181,-0.0247535184026,1.21846967915e-07,0.0,0.0,0.0,1.21846967915e-07,0.0,0.0,0.0,1.21846967915e-07,-0.593368649483,-0.31230032444,7.45318841934,9e-08,0.0,0.0,0.0,9e-08,0.0,0.0,0.0,9e-08
2771226000000,1956,2771226000000,base_link,0.00971817159735,-0.0284940526025,-0.00183144915519,-0.999545049803,1.0,0.0,0.0,0.0,1.0,0.0,0.0,0.0,1.0,0.0528818517923,-0.68570458889,-0.019860573113,1.21846967915e-07,0.0,0.0,0.0,1.21846967915e-07,0.0,0.0,0.0,1.21846967915e-07,-0.521885335445,-0.440601438284,7.0280919075,9e-08,0.0,0.0,0.0,9e-08,0.0,0.0,0.0,9e-08
2771254000000,1957,2771254000000,base_link,0.00963985946009,-0.0221386272411,-0.00178302242625,-0.999706851554,1.0,0.0,0.0,0.0,1.0,0.0,0.0,0.0,1.0,-0.0159855484962,-0.643598794937,-0.0168486814946,1.21846967915e-07,0.0,0.0,0.0,1.21846967915e-07,0.0,0.0,0.0,1.21846967915e-07,-0.345474243164,-0.339831829071,6.92240667343,9e-08,0.0,0.0,0.0,9e-08,0.0,0.0,0.0,9e-08
2771270000000,1958,2771270000000,base_link,0.0101721456747,-0.0142452674935,-0.00172713570513,-0.999845346099,1.0,0.0,0.0,0.0,1.0,0.0,0.0,0.0,1.0,-0.0469444170594,-0.667873263359,-0.018325664103,1.21846967915e-07,0.0,0.0,0.0,1.21846967915e-07,0.0,0.0,0.0,1.21846967915e-07,-0.353646844625,-0.437873452902,7.3996462822,9e-08,0.0,0.0,0.0,9e-08,0.0,0.0,0.0,9e-08
2771290000000,1959,2771290000000,base_link,0.0104069840045,-0.00939646219196,-0.00166172379624,-0.999900305589,1.0,0.0,0.0,0.0,1.0,0.0,0.0,0.0,1.0,-0.0275639109313,-0.611372351646,-0.0211184248328,1.21846967915e-07,0.0,0.0,0.0,1.21846967915e-07,0.0,0.0,0.0,1.21846967915e-07,-0.533841729164,-0.302145719528,8.23331737518,9e-08,0.0,0.0,0.0,9e-08,0.0,0.0,0.0,9e-08
2771310000000,1960,2771310000000,base_link,0.0102523144136,-0.00482495409537,-0.00159176002771,-0.99993452883,1.0,0.0,0.0,0.0,1.0,0.0,0.0,0.0,1.0,0.0229024719447,-0.436824500561,-0.0166664663702,1.21846967915e-07,0.0,0.0,0.0,1.21846967915e-07,0.0,0.0,0.0,1.21846967915e-07,-0.647592484951,-0.26690530777,8.92334365845,9e-08,0.0,0.0,0.0,9e-08,0.0,0.0,0.0,9e-08
2771330000000,1961,2771330000000,base_link,0.0100066259456,-0.00206792721965,-0.00157034942867,-0.999946582829,1.0,0.0,0.0,0.0,1.0,0.0,0.0,0.0,1.0,0.0257130526006,-0.257176816463,-0.00909491069615,1.21846967915e-07,0.0,0.0,0.0,1.21846967915e-07,0.0,0.0,0.0,1.21846967915e-07,-0.527664542198,-0.334584057331,9.8281211853,9e-08,0.0,0.0,0.0,9e-08,0.0,0.0,0.0,9e-08
2771350000000,1962,2771350000000,base_link,0.010146746107,-0.000355696681646,-0.00152478868543,-0.999947299325,1.0,0.0,0.0,0.0,1.0,0.0,0.0,0.0,1.0,-0.0177520699799,-0.164167493582,-0.0107606714591,1.21846967915e-07,0.0,0.0,0.0,1.21846967915e-07,0.0,0.0,0.0,1.21846967915e-07,-0.5394577384,-0.396355450153,10.1705465317,9e-08,0.0,0.0,0.0,9e-08,0.0,0.0,0.0,9e-08
2771370000000,1963,2771370000000,base_link,0.0103509818323,0.00106338704917,-0.00148104025667,-0.999944770514,1.0,0.0,0.0,0.0,1.0,0.0,0.0,0.0,1.0,-0.00968390889466,-0.115196824074,-0.00926133804023,1.21846967915e-07,0.0,0.0,0.0,1.21846967915e-07,0.0,0.0,0.0,1.21846967915e-07,-0.528221070766,-0.280868828297,10.4245471954,9e-08,0.0,0.0,0.0,9e-08,0.0,0.0,0.0,9e-08
2771390000000,1964,2771390000000,base_link,0.0100656898148,0.0015748456413,-0.00145571000072,-0.999947088591,1.0,0.0,0.0,0.0,1.0,0.0,0.0,0.0,1.0,0.0391504503787,-0.067066244781,-0.00904659926891,1.21846967915e-07,0.0,0.0,0.0,1.21846967915e-07,0.0,0.0,0.0,1.21846967915e-07,-0.528556764126,-0.275080949068,10.4530563354,9e-08,0.0,0.0,0.0,9e-08,0.0,0.0,0.0,9e-08
2771410000000,1965,2771410000000,base_link,0.00826959330438,0.00213546062967,-0.00148900601104,-0.999962430044,1.0,0.0,0.0,0.0,1.0,0.0,0.0,0.0,1.0,0.211548775434,-0.0649218559265,-0.00235638068989,1.21846967915e-07,0.0,0.0,0.0,1.21846967915e-07,0.0,0.0,0.0,1.21846967915e-07,-0.438585519791,-0.128617927432,19.4342346191,9e-08,0.0,0.0,0.0,9e-08,0.0,0.0,0.0,9e-08
2771430000000,1966,2771430000000,base_link,0.00434918017798,0.00352545072847,-0.00156255226169,-0.999983124146,1.0,0.0,0.0,0.0,1.0,0.0,0.0,0.0,1.0,0.420341521502,-0.16131451726,0.00177349592559,1.21846967915e-07,0.0,0.0,0.0,1.21846967915e-07,0.0,0.0,0.0,1.21846967915e-07,-0.387563765049,-0.278310656548,16.2981128693,9e-08,0.0,0.0,0.0,9e-08,0.0,0.0,0.0,9e-08
2771450000000,1967,2771450000000,base_link,0.00157516404757,0.00460262420112,-0.00154497702586,-0.999987043803,1.0,0.0,0.0,0.0,1.0,0.0,0.0,0.0,1.0,0.246746242046,-0.103455841541,-0.00956589449197,1.21846967915e-07,0.0,0.0,0.0,1.21846967915e-07,0.0,0.0,0.0,1.21846967915e-07,-0.517994225025,-0.529265165329,11.6223478317,9e-08,0.0,0.0,0.0,9e-08,0.0,0.0,0.0,9e-08
2771470000000,1968,2771470000000,base_link,0.00232611749654,0.00415704508448,-0.00152651670622,-0.999987549565,1.0,0.0,0.0,0.0,1.0,0.0,0.0,0.0,1.0,-0.127128258348,0.0646586790681,-0.0059134112671,1.21846967915e-07,0.0,0.0,0.0,1.21846967915e-07,0.0,0.0,0.0,1.21846967915e-07,-0.522087872028,-0.585628449917,8.42229175568,9e-08,0.0,0.0,0.0,9e-08,0.0,0.0,0.0,9e-08
2771490000000,1969,2771490000000,base_link,0.00535177192105,0.00230018269673,-0.00150679198111,-0.999981901888,1.0,0.0,0.0,0.0,1.0,0.0,0.0,0.0,1.0,-0.325131565332,0.200427517295,-0.00305667985231,1.21846967915e-07,0.0,0.0,0.0,1.21846967915e-07,0.0,0.0,0.0,1.21846967915e-07,-0.469553917646,-0.319803267717,5.71155548096,9e-08,0.0,0.0,0.0,9e-08,0.0,0.0,0.0,9e-08
2771510000000,1970,2771510000000,base_link,0.0082673216551,-0.000449074012339,-0.00152862404864,-0.99996462168,1.0,0.0,0.0,0.0,1.0,0.0,0.0,0.0,1.0,-0.262736111879,0.286512076855,-0.00153561506886,1.21846967915e-07,0.0,0.0,0.0,1.21846967915e-07,0.0,0.0,0.0,1.21846967915e-07,-0.372480779886,-0.247766628861,4.73123073578,9e-08,0.0,0.0,0.0,9e-08,0.0,0.0,0.0,9e-08
2771530000000,1971,2771530000000,base_link,0.0103101303409,-0.00359728785033,-0.00151357762372,-0.999939291424,1.0,0.0,0.0,0.0,1.0,0.0,0.0,0.0,1.0,-0.188796877861,0.313442677259,-0.00353478780016,1.21846967915e-07,0.0,0.0,0.0,1.21846967915e-07,0.0,0.0,0.0,1.21846967915e-07,-0.356250494719,-0.16544085741,4.72280836105,9e-08,0.0,0.0,0.0,9e-08,0.0,0.0,0.0,9e-08
2771550000000,1972,2771550000000,base_link,0.0116378380577,-0.00672753132578,-0.00152794969907,-0.999908566371,1.0,0.0,0.0,0.0,1.0,0.0,0.0,0.0,1.0,-0.124280110002,0.30589312315,0.000795457046479,1.21846967915e-07,0.0,0.0,0.0,1.21846967915e-07,0.0,0.0,0.0,1.21846967915e-07,-0.339816689491,-0.327474087477,5.51662826538,9e-08,0.0,0.0,0.0,9e-08,0.0,0.0,0.0,9e-08
2771570000000,1973,2771566000000,base_link,0.0127489099855,-0.00941122861199,-0.00152322925203,-0.999873331606,1.0,0.0,0.0,0.0,1.0,0.0,0.0,0.0,1.0,-0.106568098068,0.256289452314,-0.00203645951115,1.21846967915e-07,0.0,0.0,0.0,1.21846967915e-07,0.0,0.0,0.0,1.21846967915e-07,-0.249228805304,-0.291739702225,6.44628143311,9e-08,0.0,0.0,0.0,9e-08,0.0,0.0,0.0,9e-08
2771586000000,1974,2771586000000,base_link,0.0136448015897,-0.0116140707749,-0.00148930103898,-0.999838391869,1.0,0.0,0.0,0.0,1.0,0.0,0.0,0.0,1.0,-0.0740053206682,0.175435364246,-0.00436171982437,1.21846967915e-07,0.0,0.0,0.0,1.21846967915e-07,0.0,0.0,0.0,1.21846967915e-07,-0.307320594788,-0.220838397741,8.1837644577,9e-08,0.0,0.0,0.0,9e-08,0.0,0.0,0.0,9e-08
2771610000000,1975,2771610000000,base_link,0.0133774800993,-0.0125644899467,-0.00148352692073,-0.999830510408,1.0,0.0,0.0,0.0,1.0,0.0,0.0,0.0,1.0,0.0456548444927,0.0775927752256,-0.00112909590825,1.21846967915e-07,0.0,0.0,0.0,1.21846967915e-07,0.0,0.0,0.0,1.21846967915e-07,-0.281936734915,-0.105299182236,13.2847909927,9e-08,0.0,0.0,0.0,9e-08,0.0,0.0,0.0,9e-08
2771630000000,1976,2771630000000,base_link,0.0110618636712,-0.0119774529179,-0.00141992732633,-0.999866124495,1.0,0.0,0.0,0.0,1.0,0.0,0.0,0.0,1.0,0.266486406326,-0.0903711169958,-0.00708030816168,1.21846967915e-07,0.0,0.0,0.0,1.21846967915e-07,0.0,0.0,0.0,1.21846967915e-07,-0.155993804336,-0.0839550048113,20.2126636505,9e-08,0.0,0.0,0.0,9e-08,0.0,0.0,0.0,9e-08
2771650000000,1977,2771650000000,base_link,0.0080559337248,-0.0102643898973,-0.0013895815954,-0.999913919021,1.0,0.0,0.0,0.0,1.0,0.0,0.0,0.0,1.0,0.386669129133,-0.228257894516,-0.0043376092799,1.21846967915e-07,0.0,0.0,0.0,1.21846967915e-07,0.0,0.0,0.0,1.21846967915e-07,-0.29109287262,-0.269464254379,22.1047534943,9e-08,0.0,0.0,0.0,9e-08,0.0,0.0,0.0,9e-08
2771670000000,1978,2771666000000,base_link,0.0045231907272,-0.00704913532288,-0.0013698568703,-0.999963989477,1.0,0.0,0.0,0.0,1.0,0.0,0.0,0.0,1.0,0.259206175804,-0.276736944914,-0.00374806090258,1.21846967915e-07,0.0,0.0,0.0,1.21846967915e-07,0.0,0.0,0.0,1.21846967915e-07,-0.313551604748,-0.5323574543,20.838142395,9e-08,0.0,0.0,0.0,9e-08,0.0,0.0,0.0,9e-08
2771690000000,1979,2771690000000,base_link,0.00350017834211,-0.00487930266232,-0.00140639818796,-0.999980974657,1.0,0.0,0.0,0.0,1.0,0.0,0.0,0.0,1.0,0.0785865709186,-0.213736906648,-1.19486940093e-05,1.21846967915e-07,0.0,0.0,0.0,1.21846967915e-07,0.0,0.0,0.0,1.21846967915e-07,-0.423039287329,-0.456338971853,18.6824302673,9e-08,0.0,0.0,0.0,9e-08,0.0,0.0,0.0,9e-08
2771710000000,1980,2771710000000,base_link,0.00275688849905,-0.00346362611731,-0.00142683940949,-0.999989193293,1.0,0.0,0.0,0.0,1.0,0.0,0.0,0.0,1.0,0.122467033565,-0.181807011366,-0.00045405968558,1.21846967915e-07,0.0,0.0,0.0,1.21846967915e-07,0.0,0.0,0.0,1.21846967915e-07,-0.369756728411,-0.204258158803,13.2928724289,9e-08,0.0,0.0,0.0,9e-08,0.0,0.0,0.0,9e-08
2771730000000,1981,2771730000000,base_link,-0.000585031822522,-0.000992404368232,-0.00143139126913,-0.999998381305,1.0,0.0,0.0,0.0,1.0,0.0,0.0,0.0,1.0,0.330911695957,-0.223455026746,-0.00263600004837,1.21846967915e-07,0.0,0.0,0.0,1.21846967915e-07,0.0,0.0,0.0,1.21846967915e-07,-0.257654339075,-0.153021425009,8.80959796906,9e-08,0.0,0.0,0.0,9e-08,0.0,0.0,0.0,9e-08
2771750000000,1982,2771750000000,base_link,-0.00486754496752,0.00164387905107,-0.0014632542866,-0.999985737251,1.0,0.0,0.0,0.0,1.0,0.0,0.0,0.0,1.0,0.441790789366,-0.27719900012,6.8299646955e-05,1.21846967915e-07,0.0,0.0,0.0,1.21846967915e-07,0.0,0.0,0.0,1.21846967915e-07,-0.299278736115,-0.204583182931,6.39467906952,9e-08,0.0,0.0,0.0,9e-08,0.0,0.0,0.0,9e-08
2771770000000,1983,2771770000000,base_link,-0.00822865406186,0.00394218753013,-0.00150042780699,-0.999957245981,1.0,0.0,0.0,0.0,1.0,0.0,0.0,0.0,1.0,0.40251749754,-0.296590924263,0.00245403544977,1.21846967915e-07,0.0,0.0,0.0,1.21846967915e-07,0.0,0.0,0.0,1.21846967915e-07,-0.381467700005,-0.251582175493,4.85363483429,9e-08,0.0,0.0,0.0,9e-08,0.0,0.0,0.0,9e-08
2771790000000,1984,2771790000000,base_link,-0.0114717705843,0.00673823893021,-0.00149486442298,-0.999910378686,1.0,0.0,0.0,0.0,1.0,0.0,0.0,0.0,1.0,0.309070795774,-0.283673077822,-0.00398630043492,1.21846967915e-07,0.0,0.0,0.0,1.21846967915e-07,0.0,0.0,0.0,1.21846967915e-07,-0.360762804747,-0.340411841869,4.28644609451,9e-08,0.0,0.0,0.0,9e-08,0.0,0.0,0.0,9e-08
2771810000000,1985,2771810000000,base_link,-0.0137115061391,0.00946389208702,-0.00151012158215,-0.999860055349,1.0,0.0,0.0,0.0,1.0,0.0,0.0,0.0,1.0,0.180694133043,-0.233650401235,-0.000865648966283,1.21846967915e-07,0.0,0.0,0.0,1.21846967915e-07,0.0,0.0,0.0,1.21846967915e-07,-0.388191908598,-0.438577651978,4.71203660965,9e-08,0.0,0.0,0.0,9e-08,0.0,0.0,0.0,9e-08
2771830000000,1986,2771830000000,base_link,-0.0143013955712,0.0106364626875,-0.00154826448005,-0.999839951302,1.0,0.0,0.0,0.0,1.0,0.0,0.0,0.0,1.0,0.0421785339713,-0.107201546431,0.00219776947051,1.21846967915e-07,0.0,0.0,0.0,1.21846967915e-07,0.0,0.0,0.0,1.21846967915e-07,-0.39348885417,-0.327508091927,5.67415094376,9e-08,0.0,0.0,0.0,9e-08,0.0,0.0,0.0,9e-08
2771850000000,1987,2771850000000,base_link,-0.0140294084576,0.01073126445,-0.00158758748971,-0.999842775141,1.0,0.0,0.0,0.0,1.0,0.0,0.0,0.0,1.0,-0.0371204763651,-0.0121083687991,0.00229006051086,1.21846967915e-07,0.0,0.0,0.0,1.21846967915e-07,0.0,0.0,0.0,1.21846967915e-07,-0.397168070078,-0.342643231153,6.79713058472,9e-08,0.0,0.0,0.0,9e-08,0.0,0.0,0.0,9e-08
2771870000000,1988,2771870000000,base_link,-0.0129779802474,0.0100264624587,-0.0016728084174,-0.999864101446,1.0,0.0,0.0,0.0,1.0,0.0,0.0,0.0,1.0,-0.113691680133,0.0785423442721,0.00526002515107,1.21846967915e-07,0.0,0.0,0.0,1.21846967915e-07,0.0,0.0,0.0,1.21846967915e-07,-0.40526291728,-0.304442554712,8.43293476105,9e-08,0.0,0.0,0.0,9e-08,0.0,0.0,0.0,9e-08
2771890000000,1989,2771890000000,base_link,-0.0115067457184,0.00872931021915,-0.00174745048611,-0.999894152149,1.0,0.0,0.0,0.0,1.0,0.0,0.0,0.0,1.0,-0.152244567871,0.138378381729,0.00696319807321,1.21846967915e-07,0.0,0.0,0.0,1.21846967915e-07,0.0,0.0,0.0,1.21846967915e-07,-0.376430720091,-0.224660873413,9.71336364746,9e-08,0.0,0.0,0.0,9e-08,0.0,0.0,0.0,9e-08
2771910000000,1990,2771910000000,base_link,-0.00985137177298,0.00704552370017,-0.00187490255601,-0.999924919349,1.0,0.0,0.0,0.0,1.0,0.0,0.0,0.0,1.0,-0.170814573765,0.173578709364,0.00704549718648,1.21846967915e-07,0.0,0.0,0.0,1.21846967915e-07,0.0,0.0,0.0,1.21846967915e-07,-0.32058429718,-0.241659671068,10.3265018463,9e-08,0.0,0.0,0.0,9e-08,0.0,0.0,0.0,9e-08
2771930000000,1991,2771930000000,base_link,-0.00806509432586,0.00520535722669,-0.00192965131222,-0.999952104066,1.0,0.0,0.0,0.0,1.0,0.0,0.0,0.0,1.0,-0.178182646632,0.180392056704,0.00132111180574,1.21846967915e-07,0.0,0.0,0.0,1.21846967915e-07,0.0,0.0,0.0,1.21846967915e-07,-0.298612982035,-0.296387195587,10.7520675659,9e-08,0.0,0.0,0.0,9e-08,0.0,0.0,0.0,9e-08
2771950000000,1992,2771950000000,base_link,-0.0061662386951,0.00325512030705,-0.00199497892741,-0.999973767546,1.0,0.0,0.0,0.0,1.0,0.0,0.0,0.0,1.0,-0.188507407904,0.190418452024,0.00357645004988,1.21846967915e-07,0.0,0.0,0.0,1.21846967915e-07,0.0,0.0,0.0,1.21846967915e-07,-0.265608221292,-0.191790163517,10.9341249466,9e-08,0.0,0.0,0.0,9e-08,0.0,0.0,0.0,9e-08
2771970000000,1993,2771970000000,base_link,-0.00396887010723,0.000832995417689,-0.00198444221529,-0.999989867642,1.0,0.0,0.0,0.0,1.0,0.0,0.0,0.0,1.0,-0.180205523968,0.19810077548,-0.00354361115023,1.21846967915e-07,0.0,0.0,0.0,1.21846967915e-07,0.0,0.0,0.0,1.21846967915e-07,-0.220559775829,-0.228163227439,10.585735321,9e-08,0.0,0.0,0.0,9e-08,0.0,0.0,0.0,9e-08
2771990000000,1994,2771990000000,base_link,-0.00256578793782,-0.000778088034565,-0.00201820184094,-0.999994377355,1.0,0.0,0.0,0.0,1.0,0.0,0.0,0.0,1.0,-0.173406913877,0.196114391088,0.00234933267348,1.21846967915e-07,0.0,0.0,0.0,1.21846967915e-07,0.0,0.0,0.0,1.21846967915e-07,-0.255936861038,-0.212016686797,10.2377243042,9e-08,0.0,0.0,0.0,9e-08,0.0,0.0,0.0,9e-08
2772010000000,1995,2772010000000,base_link,-0.000882198817557,-0.0027513791157,-0.00200319756287,-0.999993871593,1.0,0.0,0.0,0.0,1.0,0.0,0.0,0.0,1.0,-0.168484270573,0.191412001848,-0.00363423163071,1.21846967915e-07,0.0,0.0,0.0,1.21846967915e-07,0.0,0.0,0.0,1.21846967915e-07,-0.256621330976,-0.215789139271,9.75381278992,9e-08,0.0,0.0,0.0,9e-08,0.0,0.0,0.0,9e-08
2772030000000,1996,2772030000000,base_link,0.000787996412914,-0.00455931222274,-0.00202557753943,-0.999987254537,1.0,0.0,0.0,0.0,1.0,0.0,0.0,0.0,1.0,-0.166810721159,0.172282934189,1.10933324322e-05,1.21846967915e-07,0.0,0.0,0.0,1.21846967915e-07,0.0,0.0,0.0,1.21846967915e-07,-0.225757300854,-0.167499899864,9.28482532501,9e-08,0.0,0.0,0.0,9e-08,0.0,0.0,0.0,9e-08
2772050000000,1997,2772050000000,base_link,0.0022920603734,-0.00621567678377,-0.00206637568879,-0.999975959182,1.0,0.0,0.0,0.0,1.0,0.0,0.0,0.0,1.0,-0.145497396588,0.159269422293,0.00327604427002,1.21846967915e-07,0.0,0.0,0.0,1.21846967915e-07,0.0,0.0,0.0,1.21846967915e-07,-0.211753129959,-0.174648866057,9.02095222473,9e-08,0.0,0.0,0.0,9e-08,0.0,0.0,0.0,9e-08
2772070000000,1998,2772070000000,base_link,0.00359035255348,-0.0076495863271,-0.00210409711821,-0.999962092869,1.0,0.0,0.0,0.0,1.0,0.0,0.0,0.0,1.0,-0.118986591697,0.129671290517,0.00282900547609,1.21846967915e-07,0.0,0.0,0.0,1.21846967915e-07,0.0,0.0,0.0,1.21846967915e-07,-0.23438359797,-0.0773459300399,8.85401821136,9e-08,0.0,0.0,0.0,9e-08,0.0,0.0,0.0,9e-08
2772090000000,1999,2772090000000,base_link,0.00467193666913,-0.00883091260611,-0.00209785938463,-0.999947931528,1.0,0.0,0.0,0.0,1.0,0.0,0.0,0.0,1.0,-0.105043500662,0.107929460704,-0.00448406534269,1.21846967915e-07,0.0,0.0,0.0,1.21846967915e-07,0.0,0.0,0.0,1.21846967915e-07,-0.246598795056,-0.194042876363,8.77754306793,9e-08,0.0,0.0,0.0,9e-08,0.0,0.0,0.0,9e-08
2772110000000,2000,2772110000000,base_link,0.00554330070085,-0.00969758845948,-0.00213182974453,-0.999935371767,1.0,0.0,0.0,0.0,1.0,0.0,0.0,0.0,1.0,-0.083016037941,0.0753635987639,0.000335085758707,1.21846967915e-07,0.0,0.0,0.0,1.21846967915e-07,0.0,0.0,0.0,1.21846967915e-07,-0.200806200504,-0.139718934894,8.86258602142,9e-08,0.0,0.0,0.0,9e-08,0.0,0.0,0.0,9e-08
2772130000000,2001,2772130000000,base_link,0.00636545598203,-0.0104685708811,-0.00216466213952,-0.999922601272,1.0,0.0,0.0,0.0,1.0,0.0,0.0,0.0,1.0,-0.0632351338863,0.0529140904546,-0.00177529314533,1.21846967915e-07,0.0,0.0,0.0,1.21846967915e-07,0.0,0.0,0.0,1.21846967915e-07,-0.235757082701,-0.137155875564,9.02804374695,9e-08,0.0,0.0,0.0,9e-08,0.0,0.0,0.0,9e-08
2772150000000,2002,2772150000000,base_link,0.00686739234984,-0.0108931644892,-0.00221553338567,-0.999914635517,1.0,0.0,0.0,0.0,1.0,0.0,0.0,0.0,1.0,-0.0463834404945,0.0330549776554,0.00300355465151,1.21846967915e-07,0.0,0.0,0.0,1.21846967915e-07,0.0,0.0,0.0,1.21846967915e-07,-0.0877280682325,-0.203879132867,9.28729915619,9e-08,0.0,0.0,0.0,9e-08,0.0,0.0,0.0,9e-08
2772170000000,2003,2772170000000,base_link,0.00717387830531,-0.0111181845378,-0.00228545500735,-0.999909872924,1.0,0.0,0.0,0.0,1.0,0.0,0.0,0.0,1.0,-0.0371060445905,0.0221137758344,0.0058679394424,1.21846967915e-07,0.0,0.0,0.0,1.21846967915e-07,0.0,0.0,0.0,1.21846967915e-07,-0.155785799026,-0.119802683592,9.50036907196,9e-08,0.0,0.0,0.0,9e-08,0.0,0.0,0.0,9e-08
2772190000000,2004,2772190000000,base_link,0.0073921164979,-0.0113258455177,-0.00232962490459,-0.999905826826,1.0,0.0,0.0,0.0,1.0,0.0,0.0,0.0,1.0,-0.0185692887753,0.0125065464526,0.000885657267645,1.21846967915e-07,0.0,0.0,0.0,1.21846967915e-07,0.0,0.0,0.0,1.21846967915e-07,-0.246240869164,-0.0788610726595,9.54225635529,9e-08,0.0,0.0,0.0,9e-08,0.0,0.0,0.0,9e-08
2772210000000,2005,2772210000000,base_link,0.00759928900248,-0.0114903397284,-0.0023294563172,-0.999902455078,1.0,0.0,0.0,0.0,1.0,0.0,0.0,0.0,1.0,-0.0191761814058,0.00772722950205,-0.0034183349926,1.21846967915e-07,0.0,0.0,0.0,1.21846967915e-07,0.0,0.0,0.0,1.21846967915e-07,-0.284035205841,-0.219305425882,9.6265001297,9e-08,0.0,0.0,0.0,9e-08,0.0,0.0,0.0,9e-08
2772230000000,2006,2772230000000,base_link,0.00782304596268,-0.01147656627,-0.00235714679667,-0.999900811351,1.0,0.0,0.0,0.0,1.0,0.0,0.0,0.0,1.0,-0.0184982232749,-0.0142064597458,0.000779582187533,1.21846967915e-07,0.0,0.0,0.0,1.21846967915e-07,0.0,0.0,0.0,1.21846967915e-07,-0.128996372223,-0.173445388675,9.78382301331,9e-08,0.0,0.0,0.0,9e-08,0.0,0.0,0.0,9e-08
2772250000000,2007,2772250000000,base_link,0.00796665410499,-0.0113858511055,-0.0023903585133,-0.999900642764,1.0,0.0,0.0,0.0,1.0,0.0,0.0,0.0,1.0,-0.0118049634621,-0.0140656176955,-0.0015661327634,1.21846967915e-07,0.0,0.0,0.0,1.21846967915e-07,0.0,0.0,0.0,1.21846967915e-07,-0.213126212358,-0.109455421567,9.74051380157,9e-08,0.0,0.0,0.0,9e-08,0.0,0.0,0.0,9e-08
2772270000000,2008,2772270000000,base_link,0.00793032434476,-0.0111896132385,-0.00240898742034,-0.999903087281,1.0,0.0,0.0,0.0,1.0,0.0,0.0,0.0,1.0,0.0076216077432,-0.028275385499,-0.00148891343269,1.21846967915e-07,0.0,0.0,0.0,1.21846967915e-07,0.0,0.0,0.0,1.21846967915e-07,-0.179538652301,-0.0490568354726,9.67521476746,9e-08,0.0,0.0,0.0,9e-08,0.0,0.0,0.0,9e-08
2772290000000,2009,2772290000000,base_link,0.00789474120936,-0.0110058562718,-0.00244101902521,-0.999905363211,1.0,0.0,0.0,0.0,1.0,0.0,0.0,0.0,1.0,0.00392086198553,-0.022468239069,0.000614924181718,1.21846967915e-07,0.0,0.0,0.0,1.21846967915e-07,0.0,0.0,0.0,1.21846967915e-07,-0.246515214443,-0.236592382193,9.58493900299,9e-08,0.0,0.0,0.0,9e-08,0.0,0.0,0.0,9e-08
2772310000000,2010,2772310000000,base_link,0.00796510306804,-0.0108107594978,-0.00247182837147,-0.999906838351,1.0,0.0,0.0,0.0,1.0,0.0,0.0,0.0,1.0,-0.00837702024728,-0.0219852719456,0.00110911251977,1.21846967915e-07,0.0,0.0,0.0,1.21846967915e-07,0.0,0.0,0.0,1.21846967915e-07,-0.203135386109,-0.187625735998,9.51016044617,9e-08,0.0,0.0,0.0,9e-08,0.0,0.0,0.0,9e-08
2772330000000,2011,2772330000000,base_link,0.00801929691819,-0.01063262362,-0.00246580137213,-0.99990831349,1.0,0.0,0.0,0.0,1.0,0.0,0.0,0.0,1.0,-0.00201957765967,-0.0225593112409,-0.00434749340639,1.21846967915e-07,0.0,0.0,0.0,1.21846967915e-07,0.0,0.0,0.0,1.21846967915e-07,-0.17851985991,-0.207760214806,9.44139289856,9e-08,0.0,0.0,0.0,9e-08,0.0,0.0,0.0,9e-08
2772350000000,2012,2772350000000,base_link,0.00797745662215,-0.0104777211101,-0.00251157284961,-0.999910167952,1.0,0.0,0.0,0.0,1.0,0.0,0.0,0.0,1.0,0.00537335686386,-0.0209460239857,0.00150418805424,1.21846967915e-07,0.0,0.0,0.0,1.21846967915e-07,0.0,0.0,0.0,1.21846967915e-07,-0.179272323847,-0.120221637189,9.43406963348,9e-08,0.0,0.0,0.0,9e-08,0.0,0.0,0.0,9e-08
2772370000000,2013,2772370000000,base_link,0.00792721189878,-0.010443058373,-0.00253584943435,-0.999910842301,1.0,0.0,0.0,0.0,1.0,0.0,0.0,0.0,1.0,0.00911366101354,-0.00957330409437,-0.000392426998587,1.21846967915e-07,0.0,0.0,0.0,1.21846967915e-07,0.0,0.0,0.0,1.21846967915e-07,-0.264348089695,-0.120107732713,9.45980072021,9e-08,0.0,0.0,0.0,9e-08,0.0,0.0,0.0,9e-08
2772390000000,2014,2772390000000,base_link,0.00787362555594,-0.0104303648453,-0.00256080036867,-0.999911348063,1.0,0.0,0.0,0.0,1.0,0.0,0.0,0.0,1.0,0.00666097085923,-0.00717770494521,-0.00206077122129,1.21846967915e-07,0.0,0.0,0.0,1.21846967915e-07,0.0,0.0,0.0,1.21846967915e-07,-0.174464359879,-0.145845636725,9.4538860321,9e-08,0.0,0.0,0.0,9e-08,0.0,0.0,0.0,9e-08
2772410000000,2015,2772410000000,base_link,0.00784135992081,-0.0133362329049,-0.00257757481438,-0.999877040529,1.0,0.0,0.0,0.0,1.0,0.0,0.0,0.0,1.0,0.00764705520123,0.363314807415,-0.00140618463047,1.21846967915e-07,0.0,0.0,0.0,1.21846967915e-07,0.0,0.0,0.0,1.21846967915e-07,-1.27693629265,-0.180219709873,11.2534713745,9e-08,0.0,0.0,0.0,9e-08,0.0,0.0,0.0,9e-08
2772430000000,2016,2772430000000,base_link,0.0077522265802,-0.0269991249592,-0.00249281750203,-0.999602285223,1.0,0.0,0.0,0.0,1.0,0.0,0.0,0.0,1.0,0.0177614204586,1.76149511337,0.000646900036372,1.21846967915e-07,0.0,0.0,0.0,1.21846967915e-07,0.0,0.0,0.0,1.21846967915e-07,-2.28699827194,-0.180419623852,12.763923645,9e-08,0.0,0.0,0.0,9e-08,0.0,0.0,0.0,9e-08
2772450000000,2017,2772450000000,base_link,0.00734143573575,-0.0621655189064,-0.00227217875007,-0.998036319067,1.0,0.0,0.0,0.0,1.0,0.0,0.0,0.0,1.0,0.0561679415405,3.79955625534,0.00431169988587,1.21846967915e-07,0.0,0.0,0.0,1.21846967915e-07,0.0,0.0,0.0,1.21846967915e-07,-2.11290955544,-0.160274609923,15.0414028168,9e-08,0.0,0.0,0.0,9e-08,0.0,0.0,0.0,9e-08
2772470000000,2018,2772466000000,base_link,0.00666113028304,-0.117311675122,-0.00184700134229,-0.993071083137,1.0,0.0,0.0,0.0,1.0,0.0,0.0,0.0,1.0,0.0678086131811,4.70069217682,-5.64474030404e-05,1.21846967915e-07,0.0,0.0,0.0,1.21846967915e-07,0.0,0.0,0.0,1.21846967915e-07,-0.75503629446,-0.1964199543,16.6751213074,9e-08,0.0,0.0,0.0,9e-08,0.0,0.0,0.0,9e-08
2772490000000,2019,2772490000000,base_link,0.00637338321154,-0.150554959739,-0.00163807941422,-0.98857978852,1.0,0.0,0.0,0.0,1.0,0.0,0.0,0.0,1.0,0.043555572629,4.17133569717,0.00352011062205,1.21846967915e-07,0.0,0.0,0.0,1.21846967915e-07,0.0,0.0,0.0,1.21846967915e-07,0.14623606205,-0.240866810083,14.8208780289,9e-08,0.0,0.0,0.0,9e-08,0.0,0.0,0.0,9e-08
2772510000000,2020,2772510000000,base_link,0.0062689960045,-0.183550441959,-0.00139864316783,-0.982989388386,1.0,0.0,0.0,0.0,1.0,0.0,0.0,0.0,1.0,0.0127133792266,3.20691299438,-0.00486235087737,1.21846967915e-07,0.0,0.0,0.0,1.21846967915e-07,0.0,0.0,0.0,1.21846967915e-07,0.106958858669,-0.156288564205,12.1651668549,9e-08,0.0,0.0,0.0,9e-08,0.0,0.0,0.0,9e-08
2772530000000,2021,2772530000000,base_link,0.00618795815152,-0.210167999645,-0.00125580749823,-0.977644957261,1.0,0.0,0.0,0.0,1.0,0.0,0.0,0.0,1.0,0.0123597392812,2.63804554939,0.0019288174808,1.21846967915e-07,0.0,0.0,0.0,1.21846967915e-07,0.0,0.0,0.0,1.21846967915e-07,-0.292918562889,-0.143240451813,8.96322536469,9e-08,0.0,0.0,0.0,9e-08,0.0,0.0,0.0,9e-08
2772550000000,2022,2772546000000,base_link,0.00587615576624,-0.234628955776,-0.00108722010419,-0.972066653273,1.0,0.0,0.0,0.0,1.0,0.0,0.0,0.0,1.0,0.0389068610966,2.48377799988,0.00365085550584,1.21846967915e-07,0.0,0.0,0.0,1.21846967915e-07,0.0,0.0,0.0,1.21846967915e-07,-0.453631132841,-0.120703190565,6.09576272964,9e-08,0.0,0.0,0.0,9e-08,0.0,0.0,0.0,9e-08
2772570000000,2023,2772570000000,base_link,0.0053546622729,-0.262763778935,-0.000872650498418,-0.964844917221,1.0,0.0,0.0,0.0,1.0,0.0,0.0,0.0,1.0,0.0474499762058,2.39160966873,0.00319239031523,1.21846967915e-07,0.0,0.0,0.0,1.21846967915e-07,0.0,0.0,0.0,1.21846967915e-07,-0.4479406178,-0.166755273938,5.12874746323,9e-08,0.0,0.0,0.0,9e-08,0.0,0.0,0.0,9e-08
2772590000000,2024,2772590000000,base_link,0.00506763169783,-0.280121231461,-0.000788019626608,-0.959950909466,1.0,0.0,0.0,0.0,1.0,0.0,0.0,0.0,1.0,0.0380756855011,2.24254012108,0.00912842620164,1.21846967915e-07,0.0,0.0,0.0,1.21846967915e-07,0.0,0.0,0.0,1.21846967915e-07,-0.261540532112,-0.193382069468,5.03782463074,9e-08,0.0,0.0,0.0,9e-08,0.0,0.0,0.0,9e-08
2772610000000,2025,2772610000000,base_link,0.00489157377489,-0.298992619859,-0.000709205019893,-0.954242624597,1.0,0.0,0.0,0.0,1.0,0.0,0.0,0.0,1.0,0.0164511669427,1.91672682762,0.0039659012109,1.21846967915e-07,0.0,0.0,0.0,1.21846967915e-07,0.0,0.0,0.0,1.21846967915e-07,-0.129512578249,-0.150991842151,6.28219795227,9e-08,0.0,0.0,0.0,9e-08,0.0,0.0,0.0,9e-08
2772630000000,2026,2772630000000,base_link,0.00476209865626,-0.313847677011,-0.000701239265524,-0.949461191074,1.0,0.0,0.0,0.0,1.0,0.0,0.0,0.0,1.0,0.0131629928946,1.49459671974,0.00744062196463,1.21846967915e-07,0.0,0.0,0.0,1.21846967915e-07,0.0,0.0,0.0,1.21846967915e-07,-0.203907996416,-0.127611681819,8.48749542236,9e-08,0.0,0.0,0.0,9e-08,0.0,0.0,0.0,9e-08
2772650000000,2027,2772650000000,base_link,0.00444789390061,-0.32357721377,-0.000644804635368,-0.946191143539,1.0,0.0,0.0,0.0,1.0,0.0,0.0,0.0,1.0,0.038734972477,0.675169348717,0.00313647836447,1.21846967915e-07,0.0,0.0,0.0,1.21846967915e-07,0.0,0.0,0.0,1.21846967915e-07,0.688221931458,-0.20780415833,10.145614624,9e-08,0.0,0.0,0.0,9e-08,0.0,0.0,0.0,9e-08
2772670000000,2028,2772670000000,base_link,0.00406206057592,-0.317488511447,-0.00059945462637,-0.948253220249,1.0,0.0,0.0,0.0,1.0,0.0,0.0,0.0,1.0,0.0439173690975,-1.40623450279,0.00232301140204,1.21846967915e-07,0.0,0.0,0.0,1.21846967915e-07,0.0,0.0,0.0,1.21846967915e-07,1.46610891819,-0.153003290296,11.1840543747,9e-08,0.0,0.0,0.0,9e-08,0.0,0.0,0.0,9e-08
2772690000000,2029,2772686000000,base_link,0.00381948438931,-0.290125555135,-0.000650283725675,-0.956980736758,1.0,0.0,0.0,0.0,1.0,0.0,0.0,0.0,1.0,0.0226169116795,-3.19535398483,-0.0022395492997,1.21846967915e-07,0.0,0.0,0.0,1.21846967915e-07,0.0,0.0,0.0,1.21846967915e-07,0.934732794762,-0.213339313865,10.9041080475,9e-08,0.0,0.0,0.0,9e-08,0.0,0.0,0.0,9e-08
2772710000000,2030,2772710000000,base_link,0.00433263280665,-0.248965817426,-0.000961032439745,-0.968502125707,1.0,0.0,0.0,0.0,1.0,0.0,0.0,0.0,1.0,-0.0642111971974,-4.42843341827,-0.00611101649702,1.21846967915e-07,0.0,0.0,0.0,1.21846967915e-07,0.0,0.0,0.0,1.21846967915e-07,-0.104790657759,-0.328521251678,11.0164794922,9e-08,0.0,0.0,0.0,9e-08,0.0,0.0,0.0,9e-08
2772730000000,2031,2772730000000,base_link,0.00547470703417,-0.207448326731,-0.00137554669485,-0.978229744784,1.0,0.0,0.0,0.0,1.0,0.0,0.0,0.0,1.0,-0.123186059296,-4.22054481506,-0.0107487104833,1.21846967915e-07,0.0,0.0,0.0,1.21846967915e-07,0.0,0.0,0.0,1.21846967915e-07,-1.3975610733,-0.207507580519,12.018456459,9e-08,0.0,0.0,0.0,9e-08,0.0,0.0,0.0,9e-08
2772750000000,2032,2772750000000,base_link,0.00655496237164,-0.164966779559,-0.00164229409908,-0.986275957486,1.0,0.0,0.0,0.0,1.0,0.0,0.0,0.0,1.0,-0.0765977203846,-3.4755179882,-0.0216362718493,1.21846967915e-07,0.0,0.0,0.0,1.21846967915e-07,0.0,0.0,0.0,1.21846967915e-07,-1.26608633995,-0.169386640191,11.9897241592,9e-08,0.0,0.0,0.0,9e-08,0.0,0.0,0.0,9e-08
2772770000000,2033,2772770000000,base_link,0.00678075357583,-0.137698400775,-0.00171394374154,-0.990449507013,1.0,0.0,0.0,0.0,1.0,0.0,0.0,0.0,1.0,-0.0232337787747,-3.44288516045,-0.0232727974653,1.21846967915e-07,0.0,0.0,0.0,1.21846967915e-07,0.0,0.0,0.0,1.21846967915e-07,-0.91181486845,-0.210606455803,12.0402669907,9e-08,0.0,0.0,0.0,9e-08,0.0,0.0,0.0,9e-08
2772790000000,2034,2772790000000,base_link,0.00715484900321,-0.10005711359,-0.00180809980112,-0.994954330769,1.0,0.0,0.0,0.0,1.0,0.0,0.0,0.0,1.0,-0.048207975924,-3.9575521946,-0.0270412750542,1.21846967915e-07,0.0,0.0,0.0,1.21846967915e-07,0.0,0.0,0.0,1.21846967915e-07,-0.784045577049,-0.22882860899,11.8415222168,9e-08,0.0,0.0,0.0,9e-08,0.0,0.0,0.0,9e-08
2772810000000,2035,2772810000000,base_link,0.00798181231784,-0.0581778238105,-0.00192804973198,-0.998272467859,1.0,0.0,0.0,0.0,1.0,0.0,0.0,0.0,1.0,-0.10134049505,-4.29624414444,-0.0332176871598,1.21846967915e-07,0.0,0.0,0.0,1.21846967915e-07,0.0,0.0,0.0,1.21846967915e-07,-0.962101340294,-0.189163014293,11.2774381638,9e-08,0.0,0.0,0.0,9e-08,0.0,0.0,0.0,9e-08
2772830000000,2036,2772830000000,base_link,0.00905418323119,-0.0152837462491,-0.00206827229697,-0.999840119889,1.0,0.0,0.0,0.0,1.0,0.0,0.0,0.0,1.0,-0.105669267476,-4.27103853226,-0.0285026468337,1.21846967915e-07,0.0,0.0,0.0,1.21846967915e-07,0.0,0.0,0.0,1.21846967915e-07,-1.16982781887,-0.138933196664,10.743678093,9e-08,0.0,0.0,0.0,9e-08,0.0,0.0,0.0,9e-08
2772850000000,2037,2772850000000,base_link,0.0098279298934,0.0338379015745,-0.00218067794195,-0.999376630996,1.0,0.0,0.0,0.0,1.0,0.0,0.0,0.0,1.0,-0.0553707890213,-4.04040908813,-0.0336177013814,1.21846967915e-07,0.0,0.0,0.0,1.21846967915e-07,0.0,0.0,0.0,1.21846967915e-07,-1.24927830696,-0.0427364856005,9.79376506805,9e-08,0.0,0.0,0.0,9e-08,0.0,0.0,0.0,9e-08
2772870000000,2038,2772870000000,base_link,0.00992354923887,0.0649253498646,-0.00225110532582,-0.997838228879,1.0,0.0,0.0,0.0,1.0,0.0,0.0,0.0,1.0,-0.0147676691413,-3.88687562943,-0.0310857445002,1.21846967915e-07,0.0,0.0,0.0,1.21846967915e-07,0.0,0.0,0.0,1.21846967915e-07,-1.24263882637,-0.0560179390013,9.14238929749,9e-08,0.0,0.0,0.0,9e-08,0.0,0.0,0.0,9e-08
2772890000000,2039,2772890000000,base_link,0.00986353739495,0.101763023089,-0.00230450538288,-0.994757167812,1.0,0.0,0.0,0.0,1.0,0.0,0.0,0.0,1.0,-0.00383049761876,-3.60567784309,-0.0365108773112,1.21846967915e-07,0.0,0.0,0.0,1.21846967915e-07,0.0,0.0,0.0,1.21846967915e-07,-1.24922049046,-0.146184280515,8.54733848572,9e-08,0.0,0.0,0.0,9e-08,0.0,0.0,0.0,9e-08
2772910000000,2040,2772910000000,base_link,0.010011810008,0.13468450598,-0.00231188108137,-0.990835277118,1.0,0.0,0.0,0.0,1.0,0.0,0.0,0.0,1.0,-0.024905949831,-3.25948548317,-0.0302825830877,1.21846967915e-07,0.0,0.0,0.0,1.21846967915e-07,0.0,0.0,0.0,1.21846967915e-07,-1.33606946468,-0.216288030148,8.40462589264,9e-08,0.0,0.0,0.0,9e-08,0.0,0.0,0.0,9e-08
2772930000000,2041,2772930000000,base_link,0.0103345442321,0.165370367244,-0.00224979877351,-0.986174889343,1.0,0.0,0.0,0.0,1.0,0.0,0.0,0.0,1.0,-0.0320071838796,-2.4101331234,-0.0293445400894,1.21846967915e-07,0.0,0.0,0.0,1.21846967915e-07,0.0,0.0,0.0,1.21846967915e-07,-1.53056204319,-0.119331583381,8.30115222931,9e-08,0.0,0.0,0.0,9e-08,0.0,0.0,0.0,9e-08
2772950000000,2042,2772950000000,base_link,0.0104228629532,0.179008233948,-0.00222695518162,-0.98378988348,1.0,0.0,0.0,0.0,1.0,0.0,0.0,0.0,1.0,-0.0138711743057,-1.69948005676,-0.0196651406586,1.21846967915e-07,0.0,0.0,0.0,1.21846967915e-07,0.0,0.0,0.0,1.21846967915e-07,-1.55213260651,-0.221568584442,8.30392074585,9e-08,0.0,0.0,0.0,9e-08,0.0,0.0,0.0,9e-08
2772970000000,2043,2772970000000,base_link,0.0103495432418,0.184421854394,-0.00209309679075,-0.982790497408,1.0,0.0,0.0,0.0,1.0,0.0,0.0,0.0,1.0,0.00846520625055,-0.33303719759,-0.0225449483842,1.21846967915e-07,0.0,0.0,0.0,1.21846967915e-07,0.0,0.0,0.0,1.21846967915e-07,-2.69921922684,-0.205281957984,11.0580434799,9e-08,0.0,0.0,0.0,9e-08,0.0,0.0,0.0,9e-08
2772990000000,2044,2772990000000,base_link,0.0101144112424,0.168025755677,-0.00183810835726,-0.98572905998,1.0,0.0,0.0,0.0,1.0,0.0,0.0,0.0,1.0,0.031966522336,1.99959981441,-0.0153501480818,1.21846967915e-07,0.0,0.0,0.0,1.21846967915e-07,0.0,0.0,0.0,1.21846967915e-07,-3.01334738731,-0.119535908103,12.1540365219,9e-08,0.0,0.0,0.0,9e-08,0.0,0.0,0.0,9e-08
2773010000000,2045,2773010000000,base_link,0.00949800304617,0.130784747649,-0.00146586739121,-0.991364262213,1.0,0.0,0.0,0.0,1.0,0.0,0.0,0.0,1.0,0.0758423507214,4.03584384918,-0.00972144678235,1.21846967915e-07,0.0,0.0,0.0,1.21846967915e-07,0.0,0.0,0.0,1.21846967915e-07,-2.49648332596,-0.12506249547,14.460521698,9e-08,0.0,0.0,0.0,9e-08,0.0,0.0,0.0,9e-08
2773030000000,2046,2773030000000,base_link,0.00864063341452,0.0762601626183,-0.00101932153124,-0.997049998518,1.0,0.0,0.0,0.0,1.0,0.0,0.0,0.0,1.0,0.0824808776379,4.65294122696,-0.00447037722915,1.21846967915e-07,0.0,0.0,0.0,1.21846967915e-07,0.0,0.0,0.0,1.21846967915e-07,-1.25531363487,-0.218292430043,15.9098577499,9e-08,0.0,0.0,0.0,9e-08,0.0,0.0,0.0,9e-08
2773050000000,2047,2773050000000,base_link,0.00826376683185,0.0375773688549,-0.000750003169251,-0.999259336317,1.0,0.0,0.0,0.0,1.0,0.0,0.0,0.0,1.0,0.0373574197292,3.74156737328,0.00628323154524,1.21846967915e-07,0.0,0.0,0.0,1.21846967915e-07,0.0,0.0,0.0,1.21846967915e-07,-0.488935917616,-0.160823255777,14.9796562195,9e-08,0.0,0.0,0.0,9e-08,0.0,0.0,0.0,9e-08
2773070000000,2048,2773066000000,base_link,0.00813760814336,0.0114140909757,-0.000573913636173,-0.999901569994,1.0,0.0,0.0,0.0,1.0,0.0,0.0,0.0,1.0,0.017566960305,3.22887253761,0.00362577941269,1.21846967915e-07,0.0,0.0,0.0,1.21846967915e-07,0.0,0.0,0.0,1.21846967915e-07,-0.839027702808,-0.152385786176,12.9910202026,9e-08,0.0,0.0,0.0,9e-08,0.0,0.0,0.0,9e-08
2773090000000,2049,2773090000000,base_link,0.00783524665215,-0.0216873247141,-0.000361830694466,-0.999734078418,1.0,0.0,0.0,0.0,1.0,0.0,0.0,0.0,1.0,0.0452429801226,3.4191634655,0.00731670483947,1.21846967915e-07,0.0,0.0,0.0,1.21846967915e-07,0.0,0.0,0.0,1.21846967915e-07,-1.34135341644,-0.107022345066,9.97917842865,9e-08,0.0,0.0,0.0,9e-08,0.0,0.0,0.0,9e-08
2773110000000,2050,2773110000000,base_link,0.00722323753327,-0.0592114383917,-0.000154383906095,-0.998219320683,1.0,0.0,0.0,0.0,1.0,0.0,0.0,0.0,1.0,0.0666519999504,3.8200712204,0.0115111023188,1.21846967915e-07,0.0,0.0,0.0,1.21846967915e-07,0.0,0.0,0.0,1.21846967915e-07,-1.19076383114,-0.158248588443,7.54930305481,9e-08,0.0,0.0,0.0,9e-08,0.0,0.0,0.0,9e-08
2773130000000,2051,2773130000000,base_link,0.00649513492018,-0.0995839941424,9.63055488475e-05,-0.995007983708,1.0,0.0,0.0,0.0,1.0,0.0,0.0,0.0,1.0,0.0760667920113,4.02833986282,0.0115734403953,1.21846967915e-07,0.0,0.0,0.0,1.21846967915e-07,0.0,0.0,0.0,1.21846967915e-07,-0.622518420219,-0.183341011405,6.00432682037,9e-08,0.0,0.0,0.0,9e-08,0.0,0.0,0.0,9e-08
2773150000000,2052,2773150000000,base_link,0.00570500795115,-0.135848512374,0.000329040446325,-0.990713135551,1.0,0.0,0.0,0.0,1.0,0.0,0.0,0.0,1.0,0.0787772834301,3.56342291832,0.0110386321321,1.21846967915e-07,0.0,0.0,0.0,1.21846967915e-07,0.0,0.0,0.0,1.21846967915e-07,0.0765034109354,-0.130822628736,4.98113059998,9e-08,0.0,0.0,0.0,9e-08,0.0,0.0,0.0,9e-08
2773170000000,2053,2773170000000,base_link,0.00468200910738,-0.167728378051,0.000587948536727,-0.985821951634,1.0,0.0,0.0,0.0,1.0,0.0,0.0,0.0,1.0,0.0888302102685,2.44527125359,0.00640458893031,1.21846967915e-07,0.0,0.0,0.0,1.21846967915e-07,0.0,0.0,0.0,1.21846967915e-07,0.29113984108,-0.146702677011,5.08073997498,9e-08,0.0,0.0,0.0,9e-08,0.0,0.0,0.0,9e-08
2773190000000,2054,2773190000000,base_link,0.00395264735719,-0.179551844,0.000686867190182,-0.983740360933,1.0,0.0,0.0,0.0,1.0,0.0,0.0,0.0,1.0,0.0917476415634,1.16359174252,0.0106068802997,1.21846967915e-07,0.0,0.0,0.0,1.21846967915e-07,0.0,0.0,0.0,1.21846967915e-07,0.610325396061,-0.126729562879,6.15465736389,9e-08,0.0,0.0,0.0,9e-08,0.0,0.0,0.0,9e-08
2773210000000,2055,2773210000000,base_link,0.00282339630832,-0.178159280515,0.000828185573239,-0.983997330268,1.0,0.0,0.0,0.0,1.0,0.0,0.0,0.0,1.0,0.0972482189536,-0.560630917549,0.00467590102926,1.21846967915e-07,0.0,0.0,0.0,1.21846967915e-07,0.0,0.0,0.0,1.21846967915e-07,1.13391005993,-0.161718115211,8.24689102173,9e-08,0.0,0.0,0.0,9e-08,0.0,0.0,0.0,9e-08
2773230000000,2056,2773230000000,base_link,0.00224726469424,-0.163480244407,0.000813939938442,-0.986543758562,1.0,0.0,0.0,0.0,1.0,0.0,0.0,0.0,1.0,0.0530830062926,-1.59224200249,0.00783427339047,1.21846967915e-07,0.0,0.0,0.0,1.21846967915e-07,0.0,0.0,0.0,1.21846967915e-07,-0.945012331009,-0.250643312931,10.0801277161,9e-08,0.0,0.0,0.0,9e-08,0.0,0.0,0.0,9e-08
2773250000000,2057,2773250000000,base_link,0.00188283143188,-0.160598938329,0.000803951135345,-0.987017699873,1.0,0.0,0.0,0.0,1.0,0.0,0.0,0.0,1.0,0.0357967503369,-0.0531297326088,0.00501201627776,1.21846967915e-07,0.0,0.0,0.0,1.21846967915e-07,0.0,0.0,0.0,1.21846967915e-07,-2.44217443466,-0.11492665112,11.4307527542,9e-08,0.0,0.0,0.0,9e-08,0.0,0.0,0.0,9e-08
2773270000000,2058,2773270000000,base_link,0.00147989175505,-0.179336642192,0.000872903379509,-0.983786300998,1.0,0.0,0.0,0.0,1.0,0.0,0.0,0.0,1.0,0.040181118995,1.78868603706,0.00129214907065,1.21846967915e-07,0.0,0.0,0.0,1.21846967915e-07,0.0,0.0,0.0,1.21846967915e-07,-2.87400269508,-0.11843533814,12.9384803772,9e-08,0.0,0.0,0.0,9e-08,0.0,0.0,0.0,9e-08
2773290000000,2059,2773290000000,base_link,0.00135716013219,-0.205644093903,0.000884662350244,-0.978625545838,1.0,0.0,0.0,0.0,1.0,0.0,0.0,0.0,1.0,-0.00122737465426,3.57001209259,0.00238365936093,1.21846967915e-07,0.0,0.0,0.0,1.21846967915e-07,0.0,0.0,0.0,1.21846967915e-07,-2.16794300079,-0.273402035236,14.4916439056,9e-08,0.0,0.0,0.0,9e-08,0.0,0.0,0.0,9e-08
2773310000000,2060,2773310000000,base_link,0.00177949262769,-0.239417101184,0.00083863799167,-0.970914864197,1.0,0.0,0.0,0.0,1.0,0.0,0.0,0.0,1.0,-0.0557804256678,3.42865467072,-0.0035297437571,1.21846967915e-07,0.0,0.0,0.0,1.21846967915e-07,0.0,0.0,0.0,1.21846967915e-07,-0.787528574467,-0.196291491389,14.7928514481,9e-08,0.0,0.0,0.0,9e-08,0.0,0.0,0.0,9e-08
2773330000000,2061,2773330000000,base_link,0.00246138648975,-0.263784407018,0.000706634062134,-0.964578254111,1.0,0.0,0.0,0.0,1.0,0.0,0.0,0.0,1.0,-0.0716269537807,2.35363316536,-0.0038685281761,1.21846967915e-07,0.0,0.0,0.0,1.21846967915e-07,0.0,0.0,0.0,1.21846967915e-07,-0.234486490488,-0.145334526896,12.5267906189,9e-08,0.0,0.0,0.0,9e-08,0.0,0.0,0.0,9e-08
2773350000000,2062,2773350000000,base_link,0.00279372492697,-0.278998270829,0.000588749326849,-0.960287409904,1.0,0.0,0.0,0.0,1.0,0.0,0.0,0.0,1.0,-0.0262062996626,1.46091258526,0.00243433145806,1.21846967915e-07,0.0,0.0,0.0,1.21846967915e-07,0.0,0.0,0.0,1.21846967915e-07,-0.715733289719,-0.136810302734,9.92615127563,9e-08,0.0,0.0,0.0,9e-08,0.0,0.0,0.0,9e-08
2773370000000,2063,2773366000000,base_link,0.00293028071614,-0.291457785406,0.000548920555006,-0.956579035144,1.0,0.0,0.0,0.0,1.0,0.0,0.0,0.0,1.0,-0.0111097265035,1.28052067757,-0.00126534863375,1.21846967915e-07,0.0,0.0,0.0,1.21846967915e-07,0.0,0.0,0.0,1.21846967915e-07,-1.10861885548,-0.102522552013,8.20318889618,9e-08,0.0,0.0,0.0,9e-08,0.0,0.0,0.0,9e-08
2773390000000,2064,2773390000000,base_link,0.00313574660263,-0.308042359561,0.000464879739075,-0.951367408739,1.0,0.0,0.0,0.0,1.0,0.0,0.0,0.0,1.0,-0.0226912796497,1.48580372334,0.00534236896783,1.21846967915e-07,0.0,0.0,0.0,1.21846967915e-07,0.0,0.0,0.0,1.21846967915e-07,-0.998572528362,-0.173781573772,7.20177364349,9e-08,0.0,0.0,0.0,9e-08,0.0,0.0,0.0,9e-08
2773410000000,2065,2773410000000,base_link,0.00344037348696,-0.322576626513,0.000384716433208,-0.946537042724,1.0,0.0,0.0,0.0,1.0,0.0,0.0,0.0,1.0,-0.0292076319456,1.53978323936,-0.00294807646424,1.21846967915e-07,0.0,0.0,0.0,1.21846967915e-07,0.0,0.0,0.0,1.21846967915e-07,-0.941661477089,-0.219078525901,7.14662265778,9e-08,0.0,0.0,0.0,9e-08,0.0,0.0,0.0,9e-08
2773430000000,2066,2773430000000,base_link,0.00368317094452,-0.333031773952,0.000264808649194,-0.942908409802,1.0,0.0,0.0,0.0,1.0,0.0,0.0,0.0,1.0,-0.0300508588552,1.31362569332,0.00497236661613,1.21846967915e-07,0.0,0.0,0.0,1.21846967915e-07,0.0,0.0,0.0,1.21846967915e-07,-0.73506385088,-0.165430247784,7.63426876068,9e-08,0.0,0.0,0.0,9e-08,0.0,0.0,0.0,9e-08
2773450000000,2067,2773450000000,base_link,0.00393440830849,-0.345058714349,0.00016728084174,-0.938572847789,1.0,0.0,0.0,0.0,1.0,0.0,0.0,0.0,1.0,-0.0171320512891,0.976659715176,-0.0029473900795,1.21846967915e-07,0.0,0.0,0.0,1.21846967915e-07,0.0,0.0,0.0,1.21846967915e-07,-0.64414781332,-0.205415099859,8.85531330109,9e-08,0.0,0.0,0.0,9e-08,0.0,0.0,0.0,9e-08
2773470000000,2068,2773470000000,base_link,0.00400460388469,-0.352237376322,0.000115398071223,-0.935902212733,1.0,0.0,0.0,0.0,1.0,0.0,0.0,0.0,1.0,-0.00583492219448,0.728450834751,0.00252896361053,1.21846967915e-07,0.0,0.0,0.0,1.21846967915e-07,0.0,0.0,0.0,1.21846967915e-07,-0.833128511906,-0.228088721633,10.2927684784,9e-08,0.0,0.0,0.0,9e-08,0.0,0.0,0.0,9e-08
2773490000000,2069,2773490000000,base_link,0.00414931508905,-0.357115220761,1.99354593457e-05,-0.934051165294,1.0,0.0,0.0,0.0,1.0,0.0,0.0,0.0,1.0,-0.0184172056615,0.639033079147,0.0024154111743,1.21846967915e-07,0.0,0.0,0.0,1.21846967915e-07,0.0,0.0,0.0,1.21846967915e-07,-1.19749557972,-0.229625210166,12.0862455368,9e-08,0.0,0.0,0.0,9e-08,0.0,0.0,0.0,9e-08
2773510000000,2070,2773510000000,base_link,0.00447645892719,-0.362746124016,-0.000178744784535,-0.931877315141,1.0,0.0,0.0,0.0,1.0,0.0,0.0,0.0,1.0,-0.0372505337,0.57507622242,0.00598210748285,1.21846967915e-07,0.0,0.0,0.0,1.21846967915e-07,0.0,0.0,0.0,1.21846967915e-07,-1.25554430485,-0.196897298098,12.9882030487,9e-08,0.0,0.0,0.0,9e-08,0.0,0.0,0.0,9e-08
2773530000000,2071,2773530000000,base_link,0.00472754877719,-0.367400126542,-0.000318335146803,-0.930050923608,1.0,0.0,0.0,0.0,1.0,0.0,0.0,0.0,1.0,-0.0237609818578,0.477017104626,0.000877177983057,1.21846967915e-07,0.0,0.0,0.0,1.21846967915e-07,0.0,0.0,0.0,1.21846967915e-07,-1.29916703701,-0.136441573501,13.5235414505,9e-08,0.0,0.0,0.0,9e-08,0.0,0.0,0.0,9e-08
2773550000000,2072,2773550000000,base_link,0.00477157116046,-0.371197705107,-0.000394368061516,-0.928541560669,1.0,0.0,0.0,0.0,1.0,0.0,0.0,0.0,1.0,0.000918264267966,0.302392929792,-0.000378178694518,1.21846967915e-07,0.0,0.0,0.0,1.21846967915e-07,0.0,0.0,0.0,1.21846967915e-07,-1.39044415951,-0.199455067515,13.4727802277,9e-08,0.0,0.0,0.0,9e-08,0.0,0.0,0.0,9e-08
2773566000000,2073,2773566000000,base_link,0.00485982666125,-0.372926273805,-0.000437442140695,-0.927848160717,1.0,0.0,0.0,0.0,1.0,0.0,0.0,0.0,1.0,-0.00866516493261,0.222058981657,-0.00150362739805,1.21846967915e-07,0.0,0.0,0.0,1.21846967915e-07,0.0,0.0,0.0,1.21846967915e-07,-1.35932517052,-0.19308719039,13.1874294281,9e-08,0.0,0.0,0.0,9e-08,0.0,0.0,0.0,9e-08
2773590000000,2074,2773590000000,base_link,0.00523442785081,-0.374650122056,-0.000640632097366,-0.927151346871,1.0,0.0,0.0,0.0,1.0,0.0,0.0,0.0,1.0,-0.0467826575041,0.154234483838,0.00386123289354,1.21846967915e-07,0.0,0.0,0.0,1.21846967915e-07,0.0,0.0,0.0,1.21846967915e-07,-1.34172677994,-0.171100571752,12.1670818329,9e-08,0.0,0.0,0.0,9e-08,0.0,0.0,0.0,9e-08
2773610000000,2075,2773610000000,base_link,0.00574676494131,-0.375400715281,-0.000883861560122,-0.926844391373,1.0,0.0,0.0,0.0,1.0,0.0,0.0,0.0,1.0,-0.050151489675,0.0231555774808,-0.00237018777989,1.21846967915e-07,0.0,0.0,0.0,1.21846967915e-07,0.0,0.0,0.0,1.21846967915e-07,-1.32017946243,-0.187148094177,11.1557359695,9e-08,0.0,0.0,0.0,9e-08,0.0,0.0,0.0,9e-08
