%time,field.header.seq,field.header.stamp,field.header.frame_id,field.orientation.x,field.orientation.y,field.orientation.z,field.orientation.w,field.orientation_covariance0,field.orientation_covariance1,field.orientation_covariance2,field.orientation_covariance3,field.orientation_covariance4,field.orientation_covariance5,field.orientation_covariance6,field.orientation_covariance7,field.orientation_covariance8,field.angular_velocity.x,field.angular_velocity.y,field.angular_velocity.z,field.angular_velocity_covariance0,field.angular_velocity_covariance1,field.angular_velocity_covariance2,field.angular_velocity_covariance3,field.angular_velocity_covariance4,field.angular_velocity_covariance5,field.angular_velocity_covariance6,field.angular_velocity_covariance7,field.angular_velocity_covariance8,field.linear_acceleration.x,field.linear_acceleration.y,field.linear_acceleration.z,field.linear_acceleration_covariance0,field.linear_acceleration_covariance1,field.linear_acceleration_covariance2,field.linear_acceleration_covariance3,field.linear_acceleration_covariance4,field.linear_acceleration_covariance5,field.linear_acceleration_covariance6,field.linear_acceleration_covariance7,field.linear_acceleration_covariance8
3095010000000,1103,3095010000000,base_link,0.00890805986045,-0.00997116916847,0.0160396996972,-0.999781957238,1.0,0.0,0.0,0.0,1.0,0.0,0.0,0.0,1.0,0.000277015729807,-0.00694711552933,0.00053604360437,1.21846967915e-07,0.0,0.0,0.0,1.21846967915e-07,0.0,0.0,0.0,1.21846967915e-07,-0.191859528422,-0.166211396456,9.77870368958,0.00000009,0.0,0.0,0.0,0.00000009,0.0,0.0,0.0,0.00000009
3095030000000,1104,3095030000000,base_link,0.00893948305251,-0.00997741867354,0.0160201014127,-0.999781915092,1.0,0.0,0.0,0.0,1.0,0.0,0.0,0.0,1.0,-2.46571726166e-05,-0.0077977180481,0.00473817903548,1.21846967915e-07,0.0,0.0,0.0,1.21846967915e-07,0.0,0.0,0.0,1.21846967915e-07,-0.220115721226,-0.233548119664,9.79325771332,0.00000009,0.0,0.0,0.0,0.00000009,0.0,0.0,0.0,0.00000009
3095050000000,1105,3095050000000,base_link,0.00891524898505,-0.0100040998924,0.0160192163289,-0.999781957238,1.0,0.0,0.0,0.0,1.0,0.0,0.0,0.0,1.0,0.00402748864144,-0.00552518758923,0.00317041249946,1.21846967915e-07,0.0,0.0,0.0,1.21846967915e-07,0.0,0.0,0.0,1.21846967915e-07,-0.208254635334,-0.097289301455,9.79165840149,0.00000009,0.0,0.0,0.0,0.00000009,0.0,0.0,0.0,0.00000009
3095070000000,1106,3095070000000,base_link,0.00896757112823,-0.0100211751695,0.0160396154035,-0.999780945714,1.0,0.0,0.0,0.0,1.0,0.0,0.0,0.0,1.0,-0.00425441982225,-0.0052318465896,0.00054737739265,1.21846967915e-07,0.0,0.0,0.0,1.21846967915e-07,0.0,0.0,0.0,1.21846967915e-07,-0.248930200934,-0.244117856026,9.76529026031,0.00000009,0.0,0.0,0.0,0.00000009,0.0,0.0,0.0,0.00000009
3095090000000,1107,3095090000000,base_link,0.00892964645551,-0.010003405416,0.0160115034556,-0.999781915092,1.0,0.0,0.0,0.0,1.0,0.0,0.0,0.0,1.0,0.00749285612255,-0.00778660923243,0.00590362632647,1.21846967915e-07,0.0,0.0,0.0,1.21846967915e-07,0.0,0.0,0.0,1.21846967915e-07,-0.196256458759,-0.226723864675,9.79441165924,0.00000009,0.0,0.0,0.0,0.00000009,0.0,0.0,0.0,0.00000009
3095110000000,1108,3095110000000,base_link,0.00892627075636,-0.00999668299371,0.0159956983874,-0.999782210119,1.0,0.0,0.0,0.0,1.0,0.0,0.0,0.0,1.0,0.00138103752397,-0.00717396475375,0.00378807075322,1.21846967915e-07,0.0,0.0,0.0,1.21846967915e-07,0.0,0.0,0.0,1.21846967915e-07,-0.165074452758,-0.148217633367,9.8363904953,0.00000009,0.0,0.0,0.0,0.00000009,0.0,0.0,0.0,0.00000009
3095130000000,1109,3095130000000,base_link,0.00889804767902,-0.00998177799122,0.0159987329605,-0.999782631588,1.0,0.0,0.0,0.0,1.0,0.0,0.0,0.0,1.0,0.0045881900005,-0.00848294701427,0.000834016536828,1.21846967915e-07,0.0,0.0,0.0,1.21846967915e-07,0.0,0.0,0.0,1.21846967915e-07,-0.212711527944,-0.240437179804,9.76997756958,0.00000009,0.0,0.0,0.0,0.00000009,0.0,0.0,0.0,0.00000009
3095146000000,1110,3095146000000,base_link,0.00888111744638,-0.00998706647406,0.0159765215713,-0.999783095203,1.0,0.0,0.0,0.0,1.0,0.0,0.0,0.0,1.0,0.00376794952899,-0.00608406867832,0.00472589908168,1.21846967915e-07,0.0,0.0,0.0,1.21846967915e-07,0.0,0.0,0.0,1.21846967915e-07,-0.186923459172,-0.169953361154,9.75020980835,0.00000009,0.0,0.0,0.0,0.00000009,0.0,0.0,0.0,0.00000009
3095170000000,1111,3095170000000,base_link,0.0088670012979,-0.00997914904039,0.0159249759756,-0.999784148875,1.0,0.0,0.0,0.0,1.0,0.0,0.0,0.0,1.0,0.00270177423954,-0.00786578189582,0.00884834118187,1.21846967915e-07,0.0,0.0,0.0,1.21846967915e-07,0.0,0.0,0.0,1.21846967915e-07,-0.278335005045,-0.178469762206,9.79200935364,0.00000009,0.0,0.0,0.0,0.00000009,0.0,0.0,0.0,0.00000009
3095190000000,1112,3095190000000,base_link,0.00886660464831,-0.00995458026768,0.0158847257353,-0.999784949665,1.0,0.0,0.0,0.0,1.0,0.0,0.0,0.0,1.0,0.00142639828846,-0.0117696020752,0.00346574862488,1.21846967915e-07,0.0,0.0,0.0,1.21846967915e-07,0.0,0.0,0.0,1.21846967915e-07,-0.293950170279,-0.184318929911,9.71698093414,0.00000009,0.0,0.0,0.0,0.00000009,0.0,0.0,0.0,0.00000009
3095210000000,1113,3095210000000,base_link,0.00891810208797,-0.00999927774139,0.0159035232297,-0.999783769553,1.0,0.0,0.0,0.0,1.0,0.0,0.0,0.0,1.0,-0.00384704442695,-0.000417870585807,-0.000774916843511,1.21846967915e-07,0.0,0.0,0.0,1.21846967915e-07,0.0,0.0,0.0,1.21846967915e-07,-0.158524215221,-0.151300296187,9.77660655975,0.00000009,0.0,0.0,0.0,0.00000009,0.0,0.0,0.0,0.00000009
3095230000000,1114,3095230000000,base_link,0.00892618580412,-0.00999064216494,0.015877012862,-0.999784233168,1.0,0.0,0.0,0.0,1.0,0.0,0.0,0.0,1.0,-0.00070858024992,-0.00860781036317,0.00672455364838,1.21846967915e-07,0.0,0.0,0.0,1.21846967915e-07,0.0,0.0,0.0,1.21846967915e-07,-0.163478389382,-0.287255048752,9.80403804779,0.00000009,0.0,0.0,0.0,0.00000009,0.0,0.0,0.0,0.00000009
3095250000000,1115,3095250000000,base_link,0.00895498848295,-0.00993991390526,0.0158360461252,-0.999785160399,1.0,0.0,0.0,0.0,1.0,0.0,0.0,0.0,1.0,0.000724679790437,-0.00916765630245,0.00406746473163,1.21846967915e-07,0.0,0.0,0.0,1.21846967915e-07,0.0,0.0,0.0,1.21846967915e-07,-0.251891732216,-0.190036535263,9.77534675598,0.00000009,0.0,0.0,0.0,0.00000009,0.0,0.0,0.0,0.00000009
3095270000000,1116,3095270000000,base_link,0.00896484417774,-0.00988432229439,0.0158248350635,-0.999785750455,1.0,0.0,0.0,0.0,1.0,0.0,0.0,0.0,1.0,0.000636499782559,-0.0130543280393,0.0022616868373,1.21846967915e-07,0.0,0.0,0.0,1.21846967915e-07,0.0,0.0,0.0,1.21846967915e-07,-0.222294077277,-0.121950469911,9.7079706192,0.00000009,0.0,0.0,0.0,0.00000009,0.0,0.0,0.0,0.00000009
3095290000000,1117,3095290000000,base_link,0.00893210793025,-0.00989331406111,0.0158429160615,-0.999785708308,1.0,0.0,0.0,0.0,1.0,0.0,0.0,0.0,1.0,0.00527113769203,-0.00292048091069,0.000833176192828,1.21846967915e-07,0.0,0.0,0.0,1.21846967915e-07,0.0,0.0,0.0,1.21846967915e-07,-0.247539162636,-0.139570832253,9.78740406036,0.00000009,0.0,0.0,0.0,0.00000009,0.0,0.0,0.0,0.00000009
3095310000000,1118,3095310000000,base_link,0.00886061152285,-0.00989529582733,0.0158632308425,-0.999785961189,1.0,0.0,0.0,0.0,1.0,0.0,0.0,0.0,1.0,0.0100529091433,-0.00670321192592,-0.00148847792298,1.21846967915e-07,0.0,0.0,0.0,1.21846967915e-07,0.0,0.0,0.0,1.21846967915e-07,-0.236703813076,-0.189557060599,9.79904937744,0.00000009,0.0,0.0,0.0,0.00000009,0.0,0.0,0.0,0.00000009
3095330000000,1119,3095330000000,base_link,0.00854368804852,-0.00989932768376,0.0158537899485,-0.999788827175,1.0,0.0,0.0,0.0,1.0,0.0,0.0,0.0,1.0,0.041711807251,-0.00520093319938,0.00339772808366,1.21846967915e-07,0.0,0.0,0.0,1.21846967915e-07,0.0,0.0,0.0,1.21846967915e-07,-0.227214217186,-0.353435724974,10.0588350296,0.00000009,0.0,0.0,0.0,0.00000009,0.0,0.0,0.0,0.00000009
3095350000000,1120,3095350000000,base_link,0.00697849572306,-0.00986244058907,0.0157265907597,-0.999803325691,1.0,0.0,0.0,0.0,1.0,0.0,0.0,0.0,1.0,0.131006523967,-0.00673884572461,0.0149697484449,1.21846967915e-07,0.0,0.0,0.0,1.21846967915e-07,0.0,0.0,0.0,1.21846967915e-07,-0.346726417542,-0.293335556984,10.6860666275,0.00000009,0.0,0.0,0.0,0.00000009,0.0,0.0,0.0,0.00000009
3095370000000,1121,3095370000000,base_link,0.00453820636516,-0.00953589734352,0.0156528337748,-0.99982178601,1.0,0.0,0.0,0.0,1.0,0.0,0.0,0.0,1.0,0.25717484951,-0.037345033139,0.0105478446931,1.21846967915e-07,0.0,0.0,0.0,1.21846967915e-07,0.0,0.0,0.0,1.21846967915e-07,-0.162546873093,-0.0482622981071,11.1618919373,0.00000009,0.0,0.0,0.0,0.00000009,0.0,0.0,0.0,0.00000009
3095390000000,1122,3095390000000,base_link,0.00280768837544,-0.00897740286846,0.015628852218,-0.999833629275,1.0,0.0,0.0,0.0,1.0,0.0,0.0,0.0,1.0,0.192958325148,-0.0805041790009,0.00374051230028,1.21846967915e-07,0.0,0.0,0.0,1.21846967915e-07,0.0,0.0,0.0,1.21846967915e-07,-0.247813299298,-0.176183104515,11.7743806839,0.00000009,0.0,0.0,0.0,0.00000009,0.0,0.0,0.0,0.00000009
3095410000000,1123,3095410000000,base_link,0.00195442279316,-0.00809164140743,0.0156366493849,-0.999843112316,1.0,0.0,0.0,0.0,1.0,0.0,0.0,0.0,1.0,0.0356806330383,-0.0746847242117,0.00469889352098,1.21846967915e-07,0.0,0.0,0.0,1.21846967915e-07,0.0,0.0,0.0,1.21846967915e-07,-0.21616101265,-0.318936705589,12.1417694092,0.00000009,0.0,0.0,0.0,0.00000009,0.0,0.0,0.0,0.00000009
3095430000000,1124,3095426000000,base_link,0.00177777678998,-0.00772143336828,0.0156603780606,-0.999846020448,1.0,0.0,0.0,0.0,1.0,0.0,0.0,0.0,1.0,0.00881774909794,-0.0443711690605,0.000280009990092,1.21846967915e-07,0.0,0.0,0.0,1.21846967915e-07,0.0,0.0,0.0,1.21846967915e-07,-0.221424952149,-0.291921645403,12.2245941162,0.00000009,0.0,0.0,0.0,0.00000009,0.0,0.0,0.0,0.00000009
3095450000000,1125,3095446000000,base_link,0.000582418079949,-0.00753039191142,0.0156683859619,-0.999848717846,1.0,0.0,0.0,0.0,1.0,0.0,0.0,0.0,1.0,0.138670027256,-0.0213255994022,0.00265023531392,1.21846967915e-07,0.0,0.0,0.0,1.21846967915e-07,0.0,0.0,0.0,1.21846967915e-07,-0.249625191092,-0.00473948381841,12.3119039536,0.00000009,0.0,0.0,0.0,0.00000009,0.0,0.0,0.0,0.00000009
3095470000000,1126,3095470000000,base_link,-0.0011998163978,-0.00731246142376,0.0156792177019,-0.99984960293,1.0,0.0,0.0,0.0,1.0,0.0,0.0,0.0,1.0,0.190647274256,-0.0250553674996,0.00224141543731,1.21846967915e-07,0.0,0.0,0.0,1.21846967915e-07,0.0,0.0,0.0,1.21846967915e-07,-0.161597147584,-0.129128873348,12.0228948593,0.00000009,0.0,0.0,0.0,0.00000009,0.0,0.0,0.0,0.00000009
3095486000000,1127,3095486000000,base_link,-0.00204861688368,-0.00696869015997,0.0157322384374,-0.999849855811,1.0,0.0,0.0,0.0,1.0,0.0,0.0,0.0,1.0,0.100247964263,-0.0371041446924,-0.00195701024495,1.21846967915e-07,0.0,0.0,0.0,1.21846967915e-07,0.0,0.0,0.0,1.21846967915e-07,-0.194409489632,-0.231468379498,11.9716463089,0.00000009,0.0,0.0,0.0,0.00000009,0.0,0.0,0.0,0.00000009
3095510000000,1128,3095510000000,base_link,-0.00165246449582,-0.00669222691934,0.0157544919734,-0.999852216035,1.0,0.0,0.0,0.0,1.0,0.0,0.0,0.0,1.0,-0.0760566294193,-0.0408760383725,-0.00101028033532,1.21846967915e-07,0.0,0.0,0.0,1.21846967915e-07,0.0,0.0,0.0,1.21846967915e-07,-0.190238252282,-0.218355998397,11.7034139633,0.00000009,0.0,0.0,0.0,0.00000009,0.0,0.0,0.0,0.00000009
3095530000000,1129,3095530000000,base_link,-0.000647293604336,-0.00645694559489,0.0158275324618,-0.999853691175,1.0,0.0,0.0,0.0,1.0,0.0,0.0,0.0,1.0,-0.0915542691946,-0.0254333969206,-0.00526982638985,1.21846967915e-07,0.0,0.0,0.0,1.21846967915e-07,0.0,0.0,0.0,1.21846967915e-07,-0.192837148905,-0.185217514634,11.371881485,0.00000009,0.0,0.0,0.0,0.00000009,0.0,0.0,0.0,0.00000009
3095550000000,1130,3095550000000,base_link,-0.0003367865761,-0.00636590840211,0.0158730089114,-0.999853733321,1.0,0.0,0.0,0.0,1.0,0.0,0.0,0.0,1.0,0.00428022816777,-0.0146826393902,-0.00222929054871,1.21846967915e-07,0.0,0.0,0.0,1.21846967915e-07,0.0,0.0,0.0,1.21846967915e-07,-0.169885903597,-0.00947558041662,11.4378061295,0.00000009,0.0,0.0,0.0,0.00000009,0.0,0.0,0.0,0.00000009
3095570000000,1131,3095570000000,base_link,-0.000737491811416,-0.00631059593179,0.0159322673804,-0.999852890384,1.0,0.0,0.0,0.0,1.0,0.0,0.0,0.0,1.0,0.0481259375811,-0.00801667012274,-0.00306956563145,1.21846967915e-07,0.0,0.0,0.0,1.21846967915e-07,0.0,0.0,0.0,1.21846967915e-07,-0.192658022046,-0.00725786667317,11.1624908447,0.00000009,0.0,0.0,0.0,0.00000009,0.0,0.0,0.0,0.00000009
3095590000000,1132,3095590000000,base_link,-0.00068637459889,-0.00631635259861,0.0160111662808,-0.999851625979,1.0,0.0,0.0,0.0,1.0,0.0,0.0,0.0,1.0,-0.0172445438802,-0.0044171018526,-0.00608163373545,1.21846967915e-07,0.0,0.0,0.0,1.21846967915e-07,0.0,0.0,0.0,1.21846967915e-07,-0.181162506342,-0.184193119407,11.1600046158,0.00000009,0.0,0.0,0.0,0.00000009,0.0,0.0,0.0,0.00000009
3095610000000,1133,3095606000000,base_link,0.000279266335322,-0.00636487810922,0.0160376766485,-0.999851162364,1.0,0.0,0.0,0.0,1.0,0.0,0.0,0.0,1.0,-0.108514405787,-0.00368695263751,0.00163965951651,1.21846967915e-07,0.0,0.0,0.0,1.21846967915e-07,0.0,0.0,0.0,1.21846967915e-07,-0.204791367054,-0.19183216989,11.1459388733,0.00000009,0.0,0.0,0.0,0.00000009,0.0,0.0,0.0,0.00000009
3095630000000,1134,3095630000000,base_link,0.00138841136181,-0.00641254026799,0.0161043529629,-0.99984880214,1.0,0.0,0.0,0.0,1.0,0.0,0.0,0.0,1.0,-0.0772863999009,-0.00115121412091,-0.00482257269323,1.21846967915e-07,0.0,0.0,0.0,1.21846967915e-07,0.0,0.0,0.0,1.21846967915e-07,-0.261669039726,-0.200099602342,11.3661785126,0.00000009,0.0,0.0,0.0,0.00000009,0.0,0.0,0.0,0.00000009
3095650000000,1135,3095650000000,base_link,0.00147867723434,-0.00649472151887,0.0161422008328,-0.999847537735,1.0,0.0,0.0,0.0,1.0,0.0,0.0,0.0,1.0,-0.00608445936814,0.0042484793812,-0.0024584827479,1.21846967915e-07,0.0,0.0,0.0,1.21846967915e-07,0.0,0.0,0.0,1.21846967915e-07,-0.188692927361,-0.056240554899,11.3721628189,0.00000009,0.0,0.0,0.0,0.00000009,0.0,0.0,0.0,0.00000009
3095670000000,1136,3095670000000,base_link,0.00142078540983,-0.00666305125737,0.0161877194292,-0.999845767567,1.0,0.0,0.0,0.0,1.0,0.0,0.0,0.0,1.0,-0.00792473740876,0.0129065383226,-0.00421672267839,1.21846967915e-07,0.0,0.0,0.0,1.21846967915e-07,0.0,0.0,0.0,1.21846967915e-07,-0.203264310956,-0.134774461389,11.5066976547,0.00000009,0.0,0.0,0.0,0.00000009,0.0,0.0,0.0,0.00000009
3095690000000,1137,3095690000000,base_link,0.00214433566937,-0.0068357491216,0.0162776186571,-0.99984184791,1.0,0.0,0.0,0.0,1.0,0.0,0.0,0.0,1.0,-0.100894242525,0.00422482984141,-0.00787977315485,1.21846967915e-07,0.0,0.0,0.0,1.21846967915e-07,0.0,0.0,0.0,1.21846967915e-07,-0.136025726795,-0.256138712168,11.6706590652,0.00000009,0.0,0.0,0.0,0.00000009,0.0,0.0,0.0,0.00000009
3095710000000,1138,3095710000000,base_link,0.00344089949939,-0.00688849162197,0.0163600157459,-0.999836579554,1.0,0.0,0.0,0.0,1.0,0.0,0.0,0.0,1.0,-0.126804232597,-0.00704300357029,-0.0026236101985,1.21846967915e-07,0.0,0.0,0.0,1.21846967915e-07,0.0,0.0,0.0,1.21846967915e-07,-0.187356442213,-0.0300781466067,11.6707391739,0.00000009,0.0,0.0,0.0,0.00000009,0.0,0.0,0.0,0.00000009
3095730000000,1139,3095730000000,base_link,0.00412445404606,-0.00688568506991,0.016395882714,-0.99983341854,1.0,0.0,0.0,0.0,1.0,0.0,0.0,0.0,1.0,-0.0533103570342,-0.0076079624705,-0.000406752282288,1.21846967915e-07,0.0,0.0,0.0,1.21846967915e-07,0.0,0.0,0.0,1.21846967915e-07,-0.194054707885,-0.0980138704181,11.7837133408,0.00000009,0.0,0.0,0.0,0.00000009,0.0,0.0,0.0,0.00000009
3095750000000,1140,3095750000000,base_link,0.00396421995982,-0.00689018523381,0.0164753295235,-0.999832702044,1.0,0.0,0.0,0.0,1.0,0.0,0.0,0.0,1.0,0.0278490092605,-0.00442383810878,-0.0068856459111,1.21846967915e-07,0.0,0.0,0.0,1.21846967915e-07,0.0,0.0,0.0,1.21846967915e-07,-0.0739396736026,-0.00141073483974,11.6197452545,0.00000009,0.0,0.0,0.0,0.00000009,0.0,0.0,0.0,0.00000009
3095770000000,1141,3095770000000,base_link,0.00391591950679,-0.00702112512005,0.0165793057987,-0.999830299674,1.0,0.0,0.0,0.0,1.0,0.0,0.0,0.0,1.0,-0.00791670288891,0.00676268897951,-0.00286177964881,1.21846967915e-07,0.0,0.0,0.0,1.21846967915e-07,0.0,0.0,0.0,1.21846967915e-07,-0.0763291940093,-0.152550071478,11.6984453201,0.00000009,0.0,0.0,0.0,0.00000009,0.0,0.0,0.0,0.00000009
3095790000000,1142,3095790000000,base_link,0.004654598427,-0.00723387113376,0.0166078392152,-0.999825115611,1.0,0.0,0.0,0.0,1.0,0.0,0.0,0.0,1.0,-0.0819118916988,0.0142747201025,0.000269082753221,1.21846967915e-07,0.0,0.0,0.0,1.21846967915e-07,0.0,0.0,0.0,1.21846967915e-07,-0.178715437651,-0.20512804389,11.6962490082,0.00000009,0.0,0.0,0.0,0.00000009,0.0,0.0,0.0,0.00000009
3095810000000,1143,3095810000000,base_link,0.00543858339837,-0.00731060251725,0.0166171958155,-0.999820395164,1.0,0.0,0.0,0.0,1.0,0.0,0.0,0.0,1.0,-0.0757787153125,-0.00387413077988,0.000196804525331,1.21846967915e-07,0.0,0.0,0.0,1.21846967915e-07,0.0,0.0,0.0,1.21846967915e-07,-0.156803444028,-0.161997303367,11.5882778168,0.00000009,0.0,0.0,0.0,0.00000009,0.0,0.0,0.0,0.00000009
3095830000000,1144,3095830000000,base_link,0.00552574217559,-0.00724212401354,0.0166260888006,-0.999820268724,1.0,0.0,0.0,0.0,1.0,0.0,0.0,0.0,1.0,0.00409332849085,-0.0138975074515,0.0017260912573,1.21846967915e-07,0.0,0.0,0.0,1.21846967915e-07,0.0,0.0,0.0,1.21846967915e-07,-0.129728555679,-0.0749747157097,11.5114784241,0.00000009,0.0,0.0,0.0,0.00000009,0.0,0.0,0.0,0.00000009
3095850000000,1145,3095850000000,base_link,0.00530594677219,-0.00716939526357,0.0166623772371,-0.999821406689,1.0,0.0,0.0,0.0,1.0,0.0,0.0,0.0,1.0,0.0309789460152,-0.0147949457169,-0.000778605812229,1.21846967915e-07,0.0,0.0,0.0,1.21846967915e-07,0.0,0.0,0.0,1.21846967915e-07,-0.179357752204,-0.0475273877382,11.5298032761,0.00000009,0.0,0.0,0.0,0.00000009,0.0,0.0,0.0,0.00000009
3095870000000,1146,3095870000000,base_link,0.00527153090693,-0.00717855989822,0.0167177160492,-0.999820605898,1.0,0.0,0.0,0.0,1.0,0.0,0.0,0.0,1.0,-0.00177972577512,-0.00401919754222,-0.00412085140124,1.21846967915e-07,0.0,0.0,0.0,1.21846967915e-07,0.0,0.0,0.0,1.21846967915e-07,-0.200094893575,-0.228873580694,11.5109577179,0.00000009,0.0,0.0,0.0,0.00000009,0.0,0.0,0.0,0.00000009
3095890000000,1147,3095890000000,base_link,0.00584282337133,-0.00724104539995,0.0167330153552,-0.999816770535,1.0,0.0,0.0,0.0,1.0,0.0,0.0,0.0,1.0,-0.0637103915215,-0.000204465031857,0.000565856345929,1.21846967915e-07,0.0,0.0,0.0,1.21846967915e-07,0.0,0.0,0.0,1.21846967915e-07,-0.22965580225,-0.17697532475,11.4162187576,0.00000009,0.0,0.0,0.0,0.00000009,0.0,0.0,0.0,0.00000009
3095910000000,1148,3095910000000,base_link,0.00668130364159,-0.00717576618778,0.0167412339907,-0.999811839354,1.0,0.0,0.0,0.0,1.0,0.0,0.0,0.0,1.0,-0.0633820742369,-0.0142070213333,0.0029010809958,1.21846967915e-07,0.0,0.0,0.0,1.21846967915e-07,0.0,0.0,0.0,1.21846967915e-07,-0.111359283328,-0.208285495639,11.4919319153,0.00000009,0.0,0.0,0.0,0.00000009,0.0,0.0,0.0,0.00000009
3095930000000,1149,3095930000000,base_link,0.00677078926235,-0.00703747451644,0.0167746142947,-0.999811670767,1.0,0.0,0.0,0.0,1.0,0.0,0.0,0.0,1.0,0.00186385517009,-0.0210745334625,-0.000982174999081,1.21846967915e-07,0.0,0.0,0.0,1.21846967915e-07,0.0,0.0,0.0,1.21846967915e-07,-0.223756477237,-0.0506123714149,11.5064172745,0.00000009,0.0,0.0,0.0,0.00000009,0.0,0.0,0.0,0.00000009
3095950000000,1150,3095950000000,base_link,0.00647475290592,-0.007030976843,0.0167955612784,-0.999813314494,1.0,0.0,0.0,0.0,1.0,0.0,0.0,0.0,1.0,0.0349202416837,-0.00779058691114,0.00291199376807,1.21846967915e-07,0.0,0.0,0.0,1.21846967915e-07,0.0,0.0,0.0,1.21846967915e-07,-0.239909648895,-0.0383648835123,11.4667358398,0.00000009,0.0,0.0,0.0,0.00000009,0.0,0.0,0.0,0.00000009
3095970000000,1151,3095966000000,base_link,0.00658837776374,-0.00716279810875,0.016864134201,-0.999810490655,1.0,0.0,0.0,0.0,1.0,0.0,0.0,0.0,1.0,-0.00568524934351,0.0059350724332,-0.00525500252843,1.21846967915e-07,0.0,0.0,0.0,1.21846967915e-07,0.0,0.0,0.0,1.21846967915e-07,-0.170895680785,-0.177265882492,11.5152015686,0.00000009,0.0,0.0,0.0,0.00000009,0.0,0.0,0.0,0.00000009
3095990000000,1152,3095990000000,base_link,0.00705618683226,-0.00724879994675,0.0168967137149,-0.999806065236,1.0,0.0,0.0,0.0,1.0,0.0,0.0,0.0,1.0,-0.0624518170953,-0.00105541036464,-0.00085210846737,1.21846967915e-07,0.0,0.0,0.0,1.21846967915e-07,0.0,0.0,0.0,1.21846967915e-07,-0.238282099366,-0.209619775414,11.4898490906,0.00000009,0.0,0.0,0.0,0.00000009,0.0,0.0,0.0,0.00000009
3096006000000,1153,3096006000000,base_link,0.00753001291906,-0.00724114566335,0.0169152583282,-0.999802356313,1.0,0.0,0.0,0.0,1.0,0.0,0.0,0.0,1.0,-0.042530760169,-0.00894725043327,0.00072239828296,1.21846967915e-07,0.0,0.0,0.0,1.21846967915e-07,0.0,0.0,0.0,1.21846967915e-07,-0.0575674138963,-0.119629643857,11.5290184021,0.00000009,0.0,0.0,0.0,0.00000009,0.0,0.0,0.0,0.00000009
3096030000000,1154,3096030000000,base_link,0.00747602485378,-0.00727374815428,0.0169388605634,-0.999802187726,1.0,0.0,0.0,0.0,1.0,0.0,0.0,0.0,1.0,0.0168701093644,-0.000783074763604,-0.00139427336399,1.21846967915e-07,0.0,0.0,0.0,1.21846967915e-07,0.0,0.0,0.0,1.21846967915e-07,-0.174006327987,-0.0965233817697,11.5022153854,0.00000009,0.0,0.0,0.0,0.00000009,0.0,0.0,0.0,0.00000009
3096050000000,1155,3096050000000,base_link,0.00718870199813,-0.00731189225608,0.0169496923034,-0.999803747159,1.0,0.0,0.0,0.0,1.0,0.0,0.0,0.0,1.0,0.030142467469,-0.000898989266716,-0.000438482209574,1.21846967915e-07,0.0,0.0,0.0,1.21846967915e-07,0.0,0.0,0.0,1.21846967915e-07,-0.195777729154,-0.0402845740318,11.4585075378,0.00000009,0.0,0.0,0.0,0.00000009,0.0,0.0,0.0,0.00000009
3096070000000,1156,3096070000000,base_link,0.00734035048012,-0.00746097470911,0.0169788579226,-0.999801049761,1.0,0.0,0.0,0.0,1.0,0.0,0.0,0.0,1.0,-0.0272164810449,0.00798185914755,-0.000166008976521,1.21846967915e-07,0.0,0.0,0.0,1.21846967915e-07,0.0,0.0,0.0,1.21846967915e-07,-0.143929168582,-0.177079439163,11.4194946289,0.00000009,0.0,0.0,0.0,0.00000009,0.0,0.0,0.0,0.00000009
3096090000000,1157,3096090000000,base_link,0.00795282024573,-0.00761470040511,0.0169820610831,-0.999795149202,1.0,0.0,0.0,0.0,1.0,0.0,0.0,0.0,1.0,-0.0651868730783,0.00834964960814,0.00125517416745,1.21846967915e-07,0.0,0.0,0.0,1.21846967915e-07,0.0,0.0,0.0,1.21846967915e-07,-0.161631673574,-0.118602924049,11.2551231384,0.00000009,0.0,0.0,0.0,0.00000009,0.0,0.0,0.0,0.00000009
3096110000000,1158,3096106000000,base_link,0.00829456819325,-0.00763940218323,0.016987666614,-0.999792156776,1.0,0.0,0.0,0.0,1.0,0.0,0.0,0.0,1.0,-0.0416337177157,-0.00490726064891,0.000737533846404,1.21846967915e-07,0.0,0.0,0.0,1.21846967915e-07,0.0,0.0,0.0,1.21846967915e-07,-0.206226855516,-0.0458135008812,11.1168413162,0.00000009,0.0,0.0,0.0,0.00000009,0.0,0.0,0.0,0.00000009
3096130000000,1159,3096126000000,base_link,0.00815302026628,-0.00753943681444,0.017029939903,-0.999793379034,1.0,0.0,0.0,0.0,1.0,0.0,0.0,0.0,1.0,0.0261002965271,-0.0152464415878,-0.00128294574097,1.21846967915e-07,0.0,0.0,0.0,1.21846967915e-07,0.0,0.0,0.0,1.21846967915e-07,-0.214733392,-0.148455739021,10.9838495255,0.00000009,0.0,0.0,0.0,0.00000009,0.0,0.0,0.0,0.00000009
3096150000000,1160,3096150000000,base_link,0.00778939914364,-0.00747597733567,0.0170371470141,-0.999796624342,1.0,0.0,0.0,0.0,1.0,0.0,0.0,0.0,1.0,0.039207957685,-0.0109518598765,0.00203841459006,1.21846967915e-07,0.0,0.0,0.0,1.21846967915e-07,0.0,0.0,0.0,1.21846967915e-07,-0.263624429703,-0.12139993161,10.7510881424,0.00000009,0.0,0.0,0.0,0.00000009,0.0,0.0,0.0,0.00000009
3096170000000,1161,3096170000000,base_link,0.00773179674944,-0.007502376574,0.017053584285,-0.999796540048,1.0,0.0,0.0,0.0,1.0,0.0,0.0,0.0,1.0,0.00792540516704,-0.00285264733247,0.000894297612831,1.21846967915e-07,0.0,0.0,0.0,1.21846967915e-07,0.0,0.0,0.0,1.21846967915e-07,-0.194731771946,-0.155116334558,10.4120864868,0.00000009,0.0,0.0,0.0,0.00000009,0.0,0.0,0.0,0.00000009
3096190000000,1162,3096190000000,base_link,0.00801819243615,-0.00761346913268,0.0170954361056,-0.999792788978,1.0,0.0,0.0,0.0,1.0,0.0,0.0,0.0,1.0,-0.0327046103776,0.00511475652456,-0.00137849780731,1.21846967915e-07,0.0,0.0,0.0,1.21846967915e-07,0.0,0.0,0.0,1.21846967915e-07,-0.221393495798,-0.118958070874,10.2814760208,0.00000009,0.0,0.0,0.0,0.00000009,0.0,0.0,0.0,0.00000009
3096210000000,1163,3096210000000,base_link,0.00846759520626,-0.00772282557253,0.0170978806228,-0.999788152825,1.0,0.0,0.0,0.0,1.0,0.0,0.0,0.0,1.0,-0.0400371514261,0.00834950990975,0.0034746946767,1.21846967915e-07,0.0,0.0,0.0,1.21846967915e-07,0.0,0.0,0.0,1.21846967915e-07,-0.150777503848,-0.09973564744,10.0137529373,0.00000009,0.0,0.0,0.0,0.00000009,0.0,0.0,0.0,0.00000009
3096230000000,1164,3096230000000,base_link,0.00867495728934,-0.00793249206748,0.0171150343902,-0.999784486049,1.0,0.0,0.0,0.0,1.0,0.0,0.0,0.0,1.0,-0.00935751013458,0.0160321835428,-0.000882059393916,1.21846967915e-07,0.0,0.0,0.0,1.21846967915e-07,0.0,0.0,0.0,1.21846967915e-07,-0.192258447409,-0.216808274388,9.83438396454,0.00000009,0.0,0.0,0.0,0.00000009,0.0,0.0,0.0,0.00000009
3096250000000,1165,3096250000000,base_link,0.00868986052199,-0.00810548475385,0.0171120841108,-0.999782968763,1.0,0.0,0.0,0.0,1.0,0.0,0.0,0.0,1.0,0.00126196490601,0.0108556514606,0.00235833739862,1.21846967915e-07,0.0,0.0,0.0,1.21846967915e-07,0.0,0.0,0.0,1.21846967915e-07,-0.144998788834,-0.130324110389,9.77655410767,0.00000009,0.0,0.0,0.0,0.00000009,0.0,0.0,0.0,0.00000009
3096266000000,1166,3096266000000,base_link,0.00872276805279,-0.00830906187296,0.017127594151,-0.999780777127,1.0,0.0,0.0,0.0,1.0,0.0,0.0,0.0,1.0,-0.00514375511557,0.0157982856035,0.000895270495676,1.21846967915e-07,0.0,0.0,0.0,1.21846967915e-07,0.0,0.0,0.0,1.21846967915e-07,-0.13197003305,-0.0828867703676,9.6423664093,0.00000009,0.0,0.0,0.0,0.00000009,0.0,0.0,0.0,0.00000009
3096290000000,1167,3096290000000,base_link,0.0089519749627,-0.0085952068703,0.0171780017818,-0.999775466624,1.0,0.0,0.0,0.0,1.0,0.0,0.0,0.0,1.0,-0.0214863829315,0.0151262432337,-0.000464339391328,1.21846967915e-07,0.0,0.0,0.0,1.21846967915e-07,0.0,0.0,0.0,1.21846967915e-07,-0.167949289083,-0.206617087126,9.62823200226,0.00000009,0.0,0.0,0.0,0.00000009,0.0,0.0,0.0,0.00000009
3096310000000,1168,3096310000000,base_link,0.00910504659539,-0.00872236831627,0.0172300952866,-0.999772094876,1.0,0.0,0.0,0.0,1.0,0.0,0.0,0.0,1.0,-0.0181182324886,0.00989762600511,-0.00451180431992,1.21846967915e-07,0.0,0.0,0.0,1.21846967915e-07,0.0,0.0,0.0,1.21846967915e-07,-0.249723941088,-0.107679873705,9.67742347717,0.00000009,0.0,0.0,0.0,0.00000009,0.0,0.0,0.0,0.00000009
3096330000000,1169,3096330000000,base_link,0.00922480081505,-0.00885407931698,0.0172650771709,-0.99976922889,1.0,0.0,0.0,0.0,1.0,0.0,0.0,0.0,1.0,-0.00849155243486,0.00907312706113,-0.00190982455388,1.21846967915e-07,0.0,0.0,0.0,1.21846967915e-07,0.0,0.0,0.0,1.21846967915e-07,-0.198591098189,-0.0997078940272,9.72579097748,0.00000009,0.0,0.0,0.0,0.00000009,0.0,0.0,0.0,0.00000009
3096350000000,1170,3096350000000,base_link,0.00939791115452,-0.00899771439788,0.0172689968278,-0.999766236464,1.0,0.0,0.0,0.0,1.0,0.0,0.0,0.0,1.0,-0.0162970162928,0.0069057289511,0.00224380311556,1.21846967915e-07,0.0,0.0,0.0,1.21846967915e-07,0.0,0.0,0.0,1.21846967915e-07,-0.197860047221,-0.191530451179,9.81340408325,0.00000009,0.0,0.0,0.0,0.00000009,0.0,0.0,0.0,0.00000009
3096370000000,1171,3096370000000,base_link,0.0095427267176,-0.00909701864972,0.0172609467797,-0.999764086975,1.0,0.0,0.0,0.0,1.0,0.0,0.0,0.0,1.0,-0.0129497367889,0.00266021769494,0.0047818031162,1.21846967915e-07,0.0,0.0,0.0,1.21846967915e-07,0.0,0.0,0.0,1.21846967915e-07,-0.188346594572,-0.133140683174,9.8471326828,0.00000009,0.0,0.0,0.0,0.00000009,0.0,0.0,0.0,0.00000009
3096390000000,1172,3096390000000,base_link,0.00969524332075,-0.00913411018132,0.0173033465093,-0.999761558164,1.0,0.0,0.0,0.0,1.0,0.0,0.0,0.0,1.0,-0.0163867790252,-0.00328114256263,-0.000571460695937,1.21846967915e-07,0.0,0.0,0.0,1.21846967915e-07,0.0,0.0,0.0,1.21846967915e-07,-0.271177768707,-0.152869239449,9.90126419067,0.00000009,0.0,0.0,0.0,0.00000009,0.0,0.0,0.0,0.00000009
3096410000000,1173,3096410000000,base_link,0.00982021796679,-0.0092700679915,0.0172796599804,-0.999759535115,1.0,0.0,0.0,0.0,1.0,0.0,0.0,0.0,1.0,-0.0130542889237,0.00782972201705,0.00367375533096,1.21846967915e-07,0.0,0.0,0.0,1.21846967915e-07,0.0,0.0,0.0,1.21846967915e-07,-0.14670561254,-0.165985509753,10.0139818192,0.00000009,0.0,0.0,0.0,0.00000009,0.0,0.0,0.0,0.00000009
3096430000000,1174,3096430000000,base_link,0.00983714904319,-0.00938325609025,0.0172882157907,-0.999758144269,1.0,0.0,0.0,0.0,1.0,0.0,0.0,0.0,1.0,0.000672094232868,0.00705493614078,0.000114393274998,1.21846967915e-07,0.0,0.0,0.0,1.21846967915e-07,0.0,0.0,0.0,1.21846967915e-07,-0.235444992781,-0.15374559164,9.962059021,0.00000009,0.0,0.0,0.0,0.00000009,0.0,0.0,0.0,0.00000009
3096450000000,1175,3096450000000,base_link,0.00977920281672,-0.00950350852971,0.0172613682482,-0.999758017828,1.0,0.0,0.0,0.0,1.0,0.0,0.0,0.0,1.0,0.00780696328729,0.00488510867581,0.00604952964932,1.21846967915e-07,0.0,0.0,0.0,1.21846967915e-07,0.0,0.0,0.0,1.21846967915e-07,-0.253685265779,-0.189267575741,9.8965473175,0.00000009,0.0,0.0,0.0,0.00000009,0.0,0.0,0.0,0.00000009
3096470000000,1176,3096470000000,base_link,0.00977699769073,-0.00956905641775,0.0172346049994,-0.999757891388,1.0,0.0,0.0,0.0,1.0,0.0,0.0,0.0,1.0,-0.000240441586357,0.00123450101819,0.0062435050495,1.21846967915e-07,0.0,0.0,0.0,1.21846967915e-07,0.0,0.0,0.0,1.21846967915e-07,-0.128861024976,-0.104190029204,9.89132785797,0.00000009,0.0,0.0,0.0,0.00000009,0.0,0.0,0.0,0.00000009
3096490000000,1177,3096490000000,base_link,0.00989588107789,-0.0096692220561,0.0172437508655,-0.999755657605,1.0,0.0,0.0,0.0,1.0,0.0,0.0,0.0,1.0,-0.0117091862485,0.00241477321833,0.0012723270338,1.21846967915e-07,0.0,0.0,0.0,1.21846967915e-07,0.0,0.0,0.0,1.21846967915e-07,-0.271990180016,-0.13098809123,9.84671783447,0.00000009,0.0,0.0,0.0,0.00000009,0.0,0.0,0.0,0.00000009
3096510000000,1178,3096510000000,base_link,0.0100103995806,-0.00967894587735,0.0172123093165,-0.999754898962,1.0,0.0,0.0,0.0,1.0,0.0,0.0,0.0,1.0,-0.0119230989367,-0.00716038467363,0.00769748911262,1.21846967915e-07,0.0,0.0,0.0,1.21846967915e-07,0.0,0.0,0.0,1.21846967915e-07,-0.140717893839,-0.169766351581,9.88677501678,0.00000009,0.0,0.0,0.0,0.00000009,0.0,0.0,0.0,0.00000009
3096530000000,1179,3096530000000,base_link,0.0100550245835,-0.0096587476073,0.0172203593646,-0.99975451964,1.0,0.0,0.0,0.0,1.0,0.0,0.0,0.0,1.0,-0.00188184529543,-0.00831273384392,0.000248819764238,1.21846967915e-07,0.0,0.0,0.0,1.21846967915e-07,0.0,0.0,0.0,1.21846967915e-07,-0.174330323935,-0.144731044769,9.83455562592,0.00000009,0.0,0.0,0.0,0.00000009,0.0,0.0,0.0,0.00000009
3096550000000,1180,3096550000000,base_link,0.0100086404539,-0.00970202867524,0.0172076731632,-0.999754730374,1.0,0.0,0.0,0.0,1.0,0.0,0.0,0.0,1.0,0.006514061708,-0.00427983235568,0.00345718790777,1.21846967915e-07,0.0,0.0,0.0,1.21846967915e-07,0.0,0.0,0.0,1.21846967915e-07,-0.137073099613,-0.156404346228,9.79503822327,0.00000009,0.0,0.0,0.0,0.00000009,0.0,0.0,0.0,0.00000009
3096570000000,1181,3096570000000,base_link,0.010069426705,-0.00975987658307,0.017199665262,-0.999753803144,1.0,0.0,0.0,0.0,1.0,0.0,0.0,0.0,1.0,-0.00764552177861,0.00125923228916,0.00282725528814,1.21846967915e-07,0.0,0.0,0.0,1.21846967915e-07,0.0,0.0,0.0,1.21846967915e-07,-0.22032494843,-0.143083274364,9.76336193085,0.00000009,0.0,0.0,0.0,0.00000009,0.0,0.0,0.0,0.00000009
3096590000000,1182,3096590000000,base_link,0.0102723909455,-0.00972133773529,0.01721079203,-0.999751864389,1.0,0.0,0.0,0.0,1.0,0.0,0.0,0.0,1.0,-0.016140697524,-0.010060957633,0.000102264224552,1.21846967915e-07,0.0,0.0,0.0,1.21846967915e-07,0.0,0.0,0.0,1.21846967915e-07,-0.186674401164,-0.139168769121,9.74152088165,0.00000009,0.0,0.0,0.0,0.00000009,0.0,0.0,0.0,0.00000009
3096610000000,1183,3096606000000,base_link,0.0104415608839,-0.00968824284857,0.0171881591723,-0.999750810717,1.0,0.0,0.0,0.0,1.0,0.0,0.0,0.0,1.0,-0.0146373417228,-0.00868202373385,0.00376658234745,1.21846967915e-07,0.0,0.0,0.0,1.21846967915e-07,0.0,0.0,0.0,1.21846967915e-07,-0.209819942713,-0.109147183597,9.63267803192,0.00000009,0.0,0.0,0.0,0.00000009,0.0,0.0,0.0,0.00000009
3096630000000,1184,3096630000000,base_link,0.0104320531476,-0.00967831957065,0.0171861361236,-0.999751063598,1.0,0.0,0.0,0.0,1.0,0.0,0.0,0.0,1.0,0.00347774336115,-0.00505839614198,0.00273074093275,1.21846967915e-07,0.0,0.0,0.0,1.21846967915e-07,0.0,0.0,0.0,1.21846967915e-07,-0.174150153995,-0.145520716906,9.75226783752,0.00000009,0.0,0.0,0.0,0.00000009,0.0,0.0,0.0,0.00000009
3096650000000,1185,3096650000000,base_link,0.0104292794404,-0.0096920290679,0.0171961249267,-0.99975076857,1.0,0.0,0.0,0.0,1.0,0.0,0.0,0.0,1.0,0.00107128312811,-0.00449323374778,0.000348666246282,1.21846967915e-07,0.0,0.0,0.0,1.21846967915e-07,0.0,0.0,0.0,1.21846967915e-07,-0.172207340598,-0.202451750636,9.76547431946,0.00000009,0.0,0.0,0.0,0.00000009,0.0,0.0,0.0,0.00000009
3096670000000,1186,3096670000000,base_link,0.0104534466656,-0.0097376504384,0.0171900979274,-0.999750220661,1.0,0.0,0.0,0.0,1.0,0.0,0.0,0.0,1.0,-0.0045532216318,-0.00163241883274,0.00301717128605,1.21846967915e-07,0.0,0.0,0.0,1.21846967915e-07,0.0,0.0,0.0,1.21846967915e-07,-0.197557613254,-0.144892945886,9.82854557037,0.00000009,0.0,0.0,0.0,0.00000009,0.0,0.0,0.0,0.00000009
3096690000000,1187,3096686000000,base_link,0.0105479055322,-0.00978299398543,0.0172245740494,-0.999748197613,1.0,0.0,0.0,0.0,1.0,0.0,0.0,0.0,1.0,-0.00919985212386,-0.00210801931098,-0.00295155355707,1.21846967915e-07,0.0,0.0,0.0,1.21846967915e-07,0.0,0.0,0.0,1.21846967915e-07,-0.0924260020256,-0.0840575322509,9.9174489975,0.00000009,0.0,0.0,0.0,0.00000009,0.0,0.0,0.0,0.00000009
3096710000000,1188,3096710000000,base_link,0.0105607225164,-0.00990089808603,0.0172625062131,-0.999746258858,1.0,0.0,0.0,0.0,1.0,0.0,0.0,0.0,1.0,0.00192106585018,0.00575414160267,-0.000313409691444,1.21846967915e-07,0.0,0.0,0.0,1.21846967915e-07,0.0,0.0,0.0,1.21846967915e-07,-0.0855529084802,-0.187788531184,9.91609954834,0.00000009,0.0,0.0,0.0,0.00000009,0.0,0.0,0.0,0.00000009
3096730000000,1189,3096730000000,base_link,0.010536505921,-0.00992866818765,0.0172541189902,-0.999746301005,1.0,0.0,0.0,0.0,1.0,0.0,0.0,0.0,1.0,0.00311113754287,-0.00590992579237,0.0033433586359,1.21846967915e-07,0.0,0.0,0.0,1.21846967915e-07,0.0,0.0,0.0,1.21846967915e-07,-0.139938294888,-0.160534769297,9.8489780426,0.00000009,0.0,0.0,0.0,0.00000009,0.0,0.0,0.0,0.00000009
3096750000000,1190,3096750000000,base_link,0.0104993607386,-0.00986922859833,0.017263644178,-0.999747143942,1.0,0.0,0.0,0.0,1.0,0.0,0.0,0.0,1.0,0.00332201458514,-0.0133918980137,-0.000194720370928,1.21846967915e-07,0.0,0.0,0.0,1.21846967915e-07,0.0,0.0,0.0,1.21846967915e-07,-0.13834515214,-0.18253774941,9.8332824707,0.00000009,0.0,0.0,0.0,0.00000009,0.0,0.0,0.0,0.00000009
3096770000000,1191,3096770000000,base_link,0.0105294359929,-0.00978720735319,0.0172620847446,-0.999747691851,1.0,0.0,0.0,0.0,1.0,0.0,0.0,0.0,1.0,-0.00631683133543,-0.0161456689239,0.00161421077792,1.21846967915e-07,0.0,0.0,0.0,1.21846967915e-07,0.0,0.0,0.0,1.21846967915e-07,-0.156817778945,-0.127520099282,9.90150260925,0.00000009,0.0,0.0,0.0,0.00000009,0.0,0.0,0.0,0.00000009
3096790000000,1192,3096790000000,base_link,0.0106703956339,-0.00972742254248,0.0172940320558,-0.999746258858,1.0,0.0,0.0,0.0,1.0,0.0,0.0,0.0,1.0,-0.0143590746447,-0.0109101776034,0.00141347863246,1.21846967915e-07,0.0,0.0,0.0,1.21846967915e-07,0.0,0.0,0.0,1.21846967915e-07,-0.239239156246,-0.194104537368,9.7479133606,0.00000009,0.0,0.0,0.0,0.00000009,0.0,0.0,0.0,0.00000009
3096810000000,1193,3096806000000,base_link,0.0108146517428,-0.00965432875307,0.0172616632761,-0.999745921683,1.0,0.0,0.0,0.0,1.0,0.0,0.0,0.0,1.0,-0.0103936493397,-0.0110944071785,0.00620212592185,1.21846967915e-07,0.0,0.0,0.0,1.21846967915e-07,0.0,0.0,0.0,1.21846967915e-07,-0.129335403442,-0.142104119062,9.80412387848,0.00000009,0.0,0.0,0.0,0.00000009,0.0,0.0,0.0,0.00000009
3096830000000,1194,3096830000000,base_link,0.0108079412566,-0.00957456707703,0.0172329612723,-0.999747312529,1.0,0.0,0.0,0.0,1.0,0.0,0.0,0.0,1.0,0.00498217111453,-0.0115149449557,0.0062680230476,1.21846967915e-07,0.0,0.0,0.0,1.21846967915e-07,0.0,0.0,0.0,1.21846967915e-07,-0.13794516027,-0.112618103623,9.73967266083,0.00000009,0.0,0.0,0.0,0.00000009,0.0,0.0,0.0,0.00000009
3096850000000,1195,3096850000000,base_link,0.0107848968498,-0.00953505238976,0.0172507893892,-0.999747607557,1.0,0.0,0.0,0.0,1.0,0.0,0.0,0.0,1.0,0.00333390524611,-0.00860384292901,0.0015814716462,1.21846967915e-07,0.0,0.0,0.0,1.21846967915e-07,0.0,0.0,0.0,1.21846967915e-07,-0.143930464983,-0.132694840431,9.72889709473,0.00000009,0.0,0.0,0.0,0.00000009,0.0,0.0,0.0,0.00000009
3096870000000,1196,3096870000000,base_link,0.0108555441464,-0.00954907547767,0.0172152174491,-0.999747354676,1.0,0.0,0.0,0.0,1.0,0.0,0.0,0.0,1.0,-0.0068464637734,-0.00431919610128,0.00744585925713,1.21846967915e-07,0.0,0.0,0.0,1.21846967915e-07,0.0,0.0,0.0,1.21846967915e-07,-0.166351765394,-0.151874557137,9.66809368134,0.00000009,0.0,0.0,0.0,0.00000009,0.0,0.0,0.0,0.00000009
3096890000000,1197,3096890000000,base_link,0.0108755891299,-0.00960189185851,0.023470104796,-0.999619270403,1.0,0.0,0.0,0.0,1.0,0.0,0.0,0.0,1.0,-0.0100853638723,-0.00787534192204,0.00779768265784,1.21846967915e-07,0.0,0.0,0.0,1.21846967915e-07,0.0,0.0,0.0,1.21846967915e-07,-0.192480906844,-0.160613253713,9.68158340454,0.00000009,0.0,0.0,0.0,0.00000009,0.0,0.0,0.0,0.00000009
3096910000000,1198,3096910000000,base_link,0.0108538565437,-0.00956389445778,0.0234692197122,-0.999619902606,1.0,0.0,0.0,0.0,1.0,0.0,0.0,0.0,1.0,0.00285289809108,-0.00863329786807,0.0051764799282,1.21846967915e-07,0.0,0.0,0.0,1.21846967915e-07,0.0,0.0,0.0,1.21846967915e-07,-0.127946600318,-0.159223154187,9.77300739288,0.00000009,0.0,0.0,0.0,0.00000009,0.0,0.0,0.0,0.00000009
3096930000000,1199,3096930000000,base_link,0.0108028524774,-0.00960069767036,0.0234698519149,-0.99962011334,1.0,0.0,0.0,0.0,1.0,0.0,0.0,0.0,1.0,0.00707495445386,-0.000899724895135,0.00595400761813,1.21846967915e-07,0.0,0.0,0.0,1.21846967915e-07,0.0,0.0,0.0,1.21846967915e-07,-0.249935671687,-0.184432044625,9.692902565,0.00000009,0.0,0.0,0.0,0.00000009,0.0,0.0,0.0,0.00000009
3096950000000,1200,3096950000000,base_link,0.0108072946894,-0.00966631932567,0.0234679974536,-0.999619438991,1.0,0.0,0.0,0.0,1.0,0.0,0.0,0.0,1.0,-0.000230915000429,0.00229034386575,0.00604051584378,1.21846967915e-07,0.0,0.0,0.0,1.21846967915e-07,0.0,0.0,0.0,1.21846967915e-07,-0.202237665653,-0.154001951218,9.73072528839,0.00000009,0.0,0.0,0.0,0.00000009,0.0,0.0,0.0,0.00000009
3096970000000,1201,3096970000000,base_link,0.0108347593704,-0.00976443249688,0.023438663247,-0.999618933228,1.0,0.0,0.0,0.0,1.0,0.0,0.0,0.0,1.0,-0.0050735748373,0.00135318865068,0.0120419925079,1.21846967915e-07,0.0,0.0,0.0,1.21846967915e-07,0.0,0.0,0.0,1.21846967915e-07,-0.227487742901,-0.225991904736,9.76755142212,0.00000009,0.0,0.0,0.0,0.00000009,0.0,0.0,0.0,0.00000009
3096990000000,1202,3096990000000,base_link,0.0107761853349,-0.00988044346724,0.0233597643466,-0.999620197634,1.0,0.0,0.0,0.0,1.0,0.0,0.0,0.0,1.0,0.00912241172045,0.00736440904438,0.016081739217,1.21846967915e-07,0.0,0.0,0.0,1.21846967915e-07,0.0,0.0,0.0,1.21846967915e-07,-0.168683677912,-0.216455325484,9.85316371918,0.00000009,0.0,0.0,0.0,0.00000009,0.0,0.0,0.0,0.00000009
3097010000000,1203,3097010000000,base_link,0.0106566799216,-0.00996484055575,0.0232014186368,-0.999624370172,1.0,0.0,0.0,0.0,1.0,0.0,0.0,0.0,1.0,0.0126653499901,0.00444155931473,0.0203601997346,1.21846967915e-07,0.0,0.0,0.0,1.21846967915e-07,0.0,0.0,0.0,1.21846967915e-07,-0.23724527657,-0.181157529354,9.78075695038,0.00000009,0.0,0.0,0.0,0.00000009,0.0,0.0,0.0,0.00000009
3097030000000,1204,3097030000000,base_link,0.0106328135689,-0.0101124540069,0.0230258348659,-0.999627236157,1.0,0.0,0.0,0.0,1.0,0.0,0.0,0.0,1.0,0.00344828376547,0.00907236151397,0.0213450659066,1.21846967915e-07,0.0,0.0,0.0,1.21846967915e-07,0.0,0.0,0.0,1.21846967915e-07,-0.2017557621,-0.201179027557,9.8174943924,0.00000009,0.0,0.0,0.0,0.00000009,0.0,0.0,0.0,0.00000009
3097050000000,1205,3097050000000,base_link,0.0106403450338,-0.0102573716444,0.0228962754535,-0.99962866915,1.0,0.0,0.0,0.0,1.0,0.0,0.0,0.0,1.0,-0.00217602564953,0.00958752539009,0.0198107566684,1.21846967915e-07,0.0,0.0,0.0,1.21846967915e-07,0.0,0.0,0.0,1.21846967915e-07,-0.270483195782,-0.150108844042,9.87460899353,0.00000009,0.0,0.0,0.0,0.00000009,0.0,0.0,0.0,0.00000009
3097070000000,1206,3097066000000,base_link,0.0106837258712,-0.0103526249626,0.0227260864793,-0.999631029374,1.0,0.0,0.0,0.0,1.0,0.0,0.0,0.0,1.0,-0.000739149167202,0.00239428877831,0.0203535594046,1.21846967915e-07,0.0,0.0,0.0,1.21846967915e-07,0.0,0.0,0.0,1.21846967915e-07,-0.158942967653,-0.252680033445,9.75993728638,0.00000009,0.0,0.0,0.0,0.00000009,0.0,0.0,0.0,0.00000009
3097086000000,1207,3097086000000,base_link,0.0106029333878,-0.0104945435472,0.0225038461471,-0.999635454793,1.0,0.0,0.0,0.0,1.0,0.0,0.0,0.0,1.0,0.0086193010211,0.00650579342619,0.0220211483538,1.21846967915e-07,0.0,0.0,0.0,1.21846967915e-07,0.0,0.0,0.0,1.21846967915e-07,-0.2194404006,-0.18486328423,9.77314090729,0.00000009,0.0,0.0,0.0,0.00000009,0.0,0.0,0.0,0.00000009
3097110000000,1208,3097110000000,base_link,0.0105386026186,-0.0106336612649,0.0223261971806,-0.9996387001,1.0,0.0,0.0,0.0,1.0,0.0,0.0,0.0,1.0,0.00810034200549,0.0120864063501,0.0262779407203,1.21846967915e-07,0.0,0.0,0.0,1.21846967915e-07,0.0,0.0,0.0,1.21846967915e-07,-0.239349737763,-0.199505925179,9.75540828705,0.00000009,0.0,0.0,0.0,0.00000009,0.0,0.0,0.0,0.00000009
3097130000000,1209,3097130000000,base_link,0.0105306724205,-0.0108165864951,0.0221173595462,-0.999641439645,1.0,0.0,0.0,0.0,1.0,0.0,0.0,0.0,1.0,-0.00445121433586,0.0105236563832,0.0249580033123,1.21846967915e-07,0.0,0.0,0.0,1.21846967915e-07,0.0,0.0,0.0,1.21846967915e-07,-0.181804746389,-0.176931887865,9.71649551392,0.00000009,0.0,0.0,0.0,0.00000009,0.0,0.0,0.0,0.00000009
3097150000000,1210,3097150000000,base_link,0.0106378071061,-0.0109697336238,0.0218689038742,-0.999644094897,1.0,0.0,0.0,0.0,1.0,0.0,0.0,0.0,1.0,-0.0076381447725,0.0045888023451,0.0209070872515,1.21846967915e-07,0.0,0.0,0.0,1.21846967915e-07,0.0,0.0,0.0,1.21846967915e-07,-0.173767820001,-0.255660802126,9.71973419189,0.00000009,0.0,0.0,0.0,0.00000009,0.0,0.0,0.0,0.00000009
3097170000000,1211,3097170000000,base_link,0.0107114824933,-0.0110663341388,0.0217038146686,-0.999645822918,1.0,0.0,0.0,0.0,1.0,0.0,0.0,0.0,1.0,-0.00603759195656,0.00604156963527,0.0212013926357,1.21846967915e-07,0.0,0.0,0.0,1.21846967915e-07,0.0,0.0,0.0,1.21846967915e-07,-0.190969064832,-0.112482771277,9.62362194061,0.00000009,0.0,0.0,0.0,0.00000009,0.0,0.0,0.0,0.00000009
3097190000000,1212,3097190000000,base_link,0.010774538274,-0.0111689325949,0.0215086326132,-0.999648225288,1.0,0.0,0.0,0.0,1.0,0.0,0.0,0.0,1.0,-0.00610028533265,0.000263586989604,0.0173543896526,1.21846967915e-07,0.0,0.0,0.0,1.21846967915e-07,0.0,0.0,0.0,1.21846967915e-07,-0.193048745394,-0.180011704564,9.66862392426,0.00000009,0.0,0.0,0.0,0.00000009,0.0,0.0,0.0,0.00000009
3097210000000,1213,3097210000000,base_link,0.0107773113431,-0.0112848779784,0.0211639135392,-0.999654252287,1.0,0.0,0.0,0.0,1.0,0.0,0.0,0.0,1.0,0.00088043755386,0.00463483901694,0.0270185712725,1.21846967915e-07,0.0,0.0,0.0,1.21846967915e-07,0.0,0.0,0.0,1.21846967915e-07,-0.194978073239,-0.251965433359,9.6906042099,0.00000009,0.0,0.0,0.0,0.00000009,0.0,0.0,0.0,0.00000009
3097230000000,1214,3097230000000,base_link,0.01080263808,-0.0113367827072,0.0209199254332,-0.999658509119,1.0,0.0,0.0,0.0,1.0,0.0,0.0,0.0,1.0,-0.00188499491196,-0.000890592695214,0.0265733748674,1.21846967915e-07,0.0,0.0,0.0,1.21846967915e-07,0.0,0.0,0.0,1.21846967915e-07,-0.163728371263,-0.161798238754,9.76705741882,0.00000009,0.0,0.0,0.0,0.00000009,0.0,0.0,0.0,0.00000009
3097250000000,1215,3097250000000,base_link,0.0108750963122,-0.0113382553157,0.0206608066085,-0.999663145272,1.0,0.0,0.0,0.0,1.0,0.0,0.0,0.0,1.0,-0.00922223459929,-0.00595603324473,0.0182458739728,1.21846967915e-07,0.0,0.0,0.0,1.21846967915e-07,0.0,0.0,0.0,1.21846967915e-07,-0.225233525038,-0.168280273676,9.83276462555,0.00000009,0.0,0.0,0.0,0.00000009,0.0,0.0,0.0,0.00000009
3097270000000,1216,3097266000000,base_link,0.0110407253906,-0.011339980836,0.0203884536734,-0.999666854195,1.0,0.0,0.0,0.0,1.0,0.0,0.0,0.0,1.0,-0.0161582510918,-0.00678961118683,0.0200327299535,1.21846967915e-07,0.0,0.0,0.0,1.21846967915e-07,0.0,0.0,0.0,1.21846967915e-07,-0.231239303946,-0.228876188397,9.78242588043,0.00000009,0.0,0.0,0.0,0.00000009,0.0,0.0,0.0,0.00000009
3097290000000,1217,3097290000000,base_link,0.0110519991581,-0.0113186392401,0.0202033447148,-0.999670731705,1.0,0.0,0.0,0.0,1.0,0.0,0.0,0.0,1.0,0.000769803940784,-0.00924287270755,0.0204905867577,1.21846967915e-07,0.0,0.0,0.0,1.21846967915e-07,0.0,0.0,0.0,1.21846967915e-07,-0.27233299613,-0.212443232536,9.85324764252,0.00000009,0.0,0.0,0.0,0.00000009,0.0,0.0,0.0,0.00000009
3097310000000,1218,3097310000000,base_link,0.0110295100895,-0.011271235663,0.0199385360656,-0.999676842998,1.0,0.0,0.0,0.0,1.0,0.0,0.0,0.0,1.0,0.00140929687768,-0.0095783136785,0.0188056472689,1.21846967915e-07,0.0,0.0,0.0,1.21846967915e-07,0.0,0.0,0.0,1.21846967915e-07,-0.218558222055,-0.175062999129,9.74293804169,0.00000009,0.0,0.0,0.0,0.00000009,0.0,0.0,0.0,0.00000009
3097330000000,1219,3097330000000,base_link,0.0110334509021,-0.0112615101953,0.0197574310575,-0.999680509774,1.0,0.0,0.0,0.0,1.0,0.0,0.0,0.0,1.0,-0.00184531055856,-0.00536307832226,0.0218595452607,1.21846967915e-07,0.0,0.0,0.0,1.21846967915e-07,0.0,0.0,0.0,1.21846967915e-07,-0.198086172342,-0.209316462278,9.78284454346,0.00000009,0.0,0.0,0.0,0.00000009,0.0,0.0,0.0,0.00000009
3097350000000,1220,3097350000000,base_link,0.0111226590596,-0.0113405311837,0.0194817485214,-0.999684007962,1.0,0.0,0.0,0.0,1.0,0.0,0.0,0.0,1.0,-0.00699011702091,0.00163167982828,0.0182488970459,1.21846967915e-07,0.0,0.0,0.0,1.21846967915e-07,0.0,0.0,0.0,1.21846967915e-07,-0.249674335122,-0.145136892796,9.8067111969,0.00000009,0.0,0.0,0.0,0.00000009,0.0,0.0,0.0,0.00000009
3097370000000,1221,3097370000000,base_link,0.0111610546945,-0.0114353116876,0.019322728462,-0.99968565169,1.0,0.0,0.0,0.0,1.0,0.0,0.0,0.0,1.0,-0.0042032324709,0.00548234768212,0.0176111813635,1.21846967915e-07,0.0,0.0,0.0,1.21846967915e-07,0.0,0.0,0.0,1.21846967915e-07,-0.197435125709,-0.271809488535,9.75790691376,0.00000009,0.0,0.0,0.0,0.00000009,0.0,0.0,0.0,0.00000009
3097390000000,1222,3097390000000,base_link,0.01119832179,-0.011562930966,0.0191261977074,-0.999687548298,1.0,0.0,0.0,0.0,1.0,0.0,0.0,0.0,1.0,-0.00249944534153,0.00482396688312,0.0188652612269,1.21846967915e-07,0.0,0.0,0.0,1.21846967915e-07,0.0,0.0,0.0,1.21846967915e-07,-0.213310644031,-0.102610602975,9.81907749176,0.00000009,0.0,0.0,0.0,0.00000009,0.0,0.0,0.0,0.00000009
3097410000000,1223,3097410000000,base_link,0.0111784021357,-0.0117066622562,0.0188691440783,-0.999690962192,1.0,0.0,0.0,0.0,1.0,0.0,0.0,0.0,1.0,0.00251521309838,0.00598727352917,0.0182156488299,1.21846967915e-07,0.0,0.0,0.0,1.21846967915e-07,0.0,0.0,0.0,1.21846967915e-07,-0.177927479148,-0.209366634488,9.73657894135,0.00000009,0.0,0.0,0.0,0.00000009,0.0,0.0,0.0,0.00000009
3097430000000,1224,3097430000000,base_link,0.0111526495057,-0.0117589674007,0.0186965527337,-0.999693870325,1.0,0.0,0.0,0.0,1.0,0.0,0.0,0.0,1.0,0.00320547982119,-0.00167166243773,0.0141585879028,1.21846967915e-07,0.0,0.0,0.0,1.21846967915e-07,0.0,0.0,0.0,1.21846967915e-07,-0.266108721495,-0.205736801028,9.77822303772,0.00000009,0.0,0.0,0.0,0.00000009,0.0,0.0,0.0,0.00000009
3097450000000,1225,3097450000000,base_link,0.011127451679,-0.0117575942736,0.0185253943819,-0.999697368513,1.0,0.0,0.0,0.0,1.0,0.0,0.0,0.0,1.0,0.00305950874463,-0.00578309223056,0.0147451292723,1.21846967915e-07,0.0,0.0,0.0,1.21846967915e-07,0.0,0.0,0.0,1.21846967915e-07,-0.226229280233,-0.148257106543,9.75552368164,0.00000009,0.0,0.0,0.0,0.00000009,0.0,0.0,0.0,0.00000009
3097470000000,1226,3097470000000,base_link,0.0111262087585,-0.0117969748236,0.0183779225589,-0.999699602296,1.0,0.0,0.0,0.0,1.0,0.0,0.0,0.0,1.0,-0.000996209681034,-0.00259699951857,0.0173917934299,1.21846967915e-07,0.0,0.0,0.0,1.21846967915e-07,0.0,0.0,0.0,1.21846967915e-07,-0.205981120467,-0.0984978750348,9.74551105499,0.00000009,0.0,0.0,0.0,0.00000009,0.0,0.0,0.0,0.00000009
3097490000000,1227,3097490000000,base_link,0.0111341152233,-0.0118831901741,0.0182038560746,-0.999701709639,1.0,0.0,0.0,0.0,1.0,0.0,0.0,0.0,1.0,5.8952224208e-05,0.00392341148108,0.0163166169077,1.21846967915e-07,0.0,0.0,0.0,1.21846967915e-07,0.0,0.0,0.0,1.21846967915e-07,-0.128659084439,-0.176996260881,9.82709312439,0.00000009,0.0,0.0,0.0,0.00000009,0.0,0.0,0.0,0.00000009
3097510000000,1228,3097510000000,base_link,0.0111279151914,-0.0120044932493,0.0180890902061,-0.999702426135,1.0,0.0,0.0,0.0,1.0,0.0,0.0,0.0,1.0,0.00321436999366,0.00331383338198,0.00743086682633,1.21846967915e-07,0.0,0.0,0.0,1.21846967915e-07,0.0,0.0,0.0,1.21846967915e-07,-0.20400416851,-0.148823305964,9.93224716187,0.00000009,0.0,0.0,0.0,0.00000009,0.0,0.0,0.0,0.00000009
3097530000000,1229,3097530000000,base_link,0.0110160525164,-0.0120217099076,0.0179914781049,-0.999705207827,1.0,0.0,0.0,0.0,1.0,0.0,0.0,0.0,1.0,0.0154183181003,-0.00642185658216,0.00891967490315,1.21846967915e-07,0.0,0.0,0.0,1.21846967915e-07,0.0,0.0,0.0,1.21846967915e-07,-0.213939756155,-0.175817862153,9.91873645782,0.00000009,0.0,0.0,0.0,0.00000009,0.0,0.0,0.0,0.00000009
3097550000000,1230,3097550000000,base_link,0.0109127619094,-0.0119673871062,0.017884635844,-0.999708874603,1.0,0.0,0.0,0.0,1.0,0.0,0.0,0.0,1.0,0.0160208828747,-0.0134714432061,0.0156534947455,1.21846967915e-07,0.0,0.0,0.0,1.21846967915e-07,0.0,0.0,0.0,1.21846967915e-07,-0.187033370137,-0.28171941638,9.7856092453,0.00000009,0.0,0.0,0.0,0.00000009,0.0,0.0,0.0,0.00000009
3097570000000,1231,3097570000000,base_link,0.010788724187,-0.0118929684899,0.0177392292166,-0.999713763637,1.0,0.0,0.0,0.0,1.0,0.0,0.0,0.0,1.0,0.011357633397,-0.0121174566448,0.011208742857,1.21846967915e-07,0.0,0.0,0.0,1.21846967915e-07,0.0,0.0,0.0,1.21846967915e-07,-0.144668668509,-0.233023896813,9.78220462799,0.00000009,0.0,0.0,0.0,0.00000009,0.0,0.0,0.0,0.00000009
3097590000000,1232,3097586000000,base_link,0.0107635721085,-0.0118277814328,0.017637023109,-0.999716587476,1.0,0.0,0.0,0.0,1.0,0.0,0.0,0.0,1.0,0.00221913983114,-0.0124205648899,0.00857583712786,1.21846967915e-07,0.0,0.0,0.0,1.21846967915e-07,0.0,0.0,0.0,1.21846967915e-07,-0.165123283863,-0.231484130025,9.83744621277,0.00000009,0.0,0.0,0.0,0.00000009,0.0,0.0,0.0,0.00000009
3097610000000,1233,3097610000000,base_link,0.0107367517721,-0.0117286432782,0.0175545417264,-0.999719495609,1.0,0.0,0.0,0.0,1.0,0.0,0.0,0.0,1.0,0.00184691697359,-0.0189652852714,0.00745123671368,1.21846967915e-07,0.0,0.0,0.0,1.21846967915e-07,0.0,0.0,0.0,1.21846967915e-07,-0.240099474788,-0.14161118865,9.82979869843,0.00000009,0.0,0.0,0.0,0.00000009,0.0,0.0,0.0,0.00000009
3097630000000,1234,3097630000000,base_link,0.0107324929648,-0.011623372963,0.0174677192185,-0.999722277301,1.0,0.0,0.0,0.0,1.0,0.0,0.0,0.0,1.0,0.00240929424763,-0.0140656977892,0.0104853762314,1.21846967915e-07,0.0,0.0,0.0,1.21846967915e-07,0.0,0.0,0.0,1.21846967915e-07,-0.195873633027,-0.19303008914,9.75539493561,0.00000009,0.0,0.0,0.0,0.00000009,0.0,0.0,0.0,0.00000009
3097650000000,1235,3097650000000,base_link,0.0107418906419,-0.0115625587649,0.0173572523285,-0.999724848259,1.0,0.0,0.0,0.0,1.0,0.0,0.0,0.0,1.0,0.000997742637992,-0.0111566167325,0.00773486401886,1.21846967915e-07,0.0,0.0,0.0,1.21846967915e-07,0.0,0.0,0.0,1.21846967915e-07,-0.25428301096,-0.175061687827,9.70662498474,0.00000009,0.0,0.0,0.0,0.00000009,0.0,0.0,0.0,0.00000009
3097670000000,1236,3097670000000,base_link,0.0107806032219,-0.0115244283382,0.0173272016256,-0.999725311874,1.0,0.0,0.0,0.0,1.0,0.0,0.0,0.0,1.0,-0.00481458147988,-0.00779057946056,0.00178507412784,1.21846967915e-07,0.0,0.0,0.0,1.21846967915e-07,0.0,0.0,0.0,1.21846967915e-07,-0.204969421029,-0.278183817863,9.82491207123,0.00000009,0.0,0.0,0.0,0.00000009,0.0,0.0,0.0,0.00000009
3097690000000,1237,3097690000000,base_link,0.0108190362087,-0.0114990529719,0.0172280722379,-0.999726997748,1.0,0.0,0.0,0.0,1.0,0.0,0.0,0.0,1.0,-0.00102734053507,-0.0104208886623,0.00957649201155,1.21846967915e-07,0.0,0.0,0.0,1.21846967915e-07,0.0,0.0,0.0,1.21846967915e-07,-0.210228204727,-0.238804548979,9.77657032013,0.00000009,0.0,0.0,0.0,0.00000009,0.0,0.0,0.0,0.00000009
3097710000000,1238,3097710000000,base_link,0.0108579786413,-0.0114971023014,0.0171264983329,-0.999728262153,1.0,0.0,0.0,0.0,1.0,0.0,0.0,0.0,1.0,-0.00188313343097,-0.00517963105813,0.00957341678441,1.21846967915e-07,0.0,0.0,0.0,1.21846967915e-07,0.0,0.0,0.0,1.21846967915e-07,-0.289668738842,-0.316974014044,9.71434783936,0.00000009,0.0,0.0,0.0,0.00000009,0.0,0.0,0.0,0.00000009
3097730000000,1239,3097730000000,base_link,0.0109398581142,-0.0114715468232,0.0170401394403,-0.999729147237,1.0,0.0,0.0,0.0,1.0,0.0,0.0,0.0,1.0,-0.007668716833,-0.00860249157995,0.00709320465103,1.21846967915e-07,0.0,0.0,0.0,1.21846967915e-07,0.0,0.0,0.0,1.21846967915e-07,-0.29909452796,-0.295250862837,9.78868198395,0.00000009,0.0,0.0,0.0,0.00000009,0.0,0.0,0.0,0.00000009
3097750000000,1240,3097750000000,base_link,0.0110917025389,-0.0114164900019,0.0169724516016,-0.999729315825,1.0,0.0,0.0,0.0,1.0,0.0,0.0,0.0,1.0,-0.0136156873778,-0.0124012399465,0.00746754556894,1.21846967915e-07,0.0,0.0,0.0,1.21846967915e-07,0.0,0.0,0.0,1.21846967915e-07,-0.196113556623,-0.208640575409,9.83910751343,0.00000009,0.0,0.0,0.0,0.00000009,0.0,0.0,0.0,0.00000009
3097770000000,1241,3097770000000,base_link,0.0112584981928,-0.0113575033523,0.0169311898369,-0.999728767916,1.0,0.0,0.0,0.0,1.0,0.0,0.0,0.0,1.0,-0.0156862922013,-0.011354861781,0.00280141597614,1.21846967915e-07,0.0,0.0,0.0,1.21846967915e-07,0.0,0.0,0.0,1.21846967915e-07,-0.184930458665,-0.164375305176,9.83472633362,0.00000009,0.0,0.0,0.0,0.00000009,0.0,0.0,0.0,0.00000009
3097790000000,1242,3097790000000,base_link,0.0113903346617,-0.0113408752938,0.0168245161634,-0.999729231531,1.0,0.0,0.0,0.0,1.0,0.0,0.0,0.0,1.0,-0.0101152658463,-0.00699713360518,0.012463260442,1.21846967915e-07,0.0,0.0,0.0,1.21846967915e-07,0.0,0.0,0.0,1.21846967915e-07,-0.258370906115,-0.1363594383,9.78075695038,0.00000009,0.0,0.0,0.0,0.00000009,0.0,0.0,0.0,0.00000009
3097810000000,1243,3097810000000,base_link,0.0113891745121,-0.0112745240947,0.0168086689483,-0.999730327349,1.0,0.0,0.0,0.0,1.0,0.0,0.0,0.0,1.0,0.0046191602014,-0.012311341241,0.00312880054116,1.21846967915e-07,0.0,0.0,0.0,1.21846967915e-07,0.0,0.0,0.0,1.21846967915e-07,-0.283112257719,-0.182705625892,9.79247283936,0.00000009,0.0,0.0,0.0,0.00000009,0.0,0.0,0.0,0.00000009
3097830000000,1244,3097826000000,base_link,0.0113720899742,-0.0112235045937,0.0167543416606,-0.999731971076,1.0,0.0,0.0,0.0,1.0,0.0,0.0,0.0,1.0,0.00372210610658,-0.0124111305922,0.00933589600027,1.21846967915e-07,0.0,0.0,0.0,1.21846967915e-07,0.0,0.0,0.0,1.21846967915e-07,-0.196481823921,-0.204151526093,9.77726268768,0.00000009,0.0,0.0,0.0,0.00000009,0.0,0.0,0.0,0.00000009
3097850000000,1245,3097850000000,base_link,0.0113593220207,-0.0112501019819,0.0167549738633,-0.999731844636,1.0,0.0,0.0,0.0,1.0,0.0,0.0,0.0,1.0,0.00182570982724,-0.00388126564212,0.000604549073614,1.21846967915e-07,0.0,0.0,0.0,1.21846967915e-07,0.0,0.0,0.0,1.21846967915e-07,-0.265161812305,-0.187749952078,9.85100269318,0.00000009,0.0,0.0,0.0,0.00000009,0.0,0.0,0.0,0.00000009
3097870000000,1246,3097870000000,base_link,0.0113768519719,-0.0113598449764,0.0167615066248,-0.999730285202,1.0,0.0,0.0,0.0,1.0,0.0,0.0,0.0,1.0,0.00010322581511,0.00689567858353,0.00303313881159,1.21846967915e-07,0.0,0.0,0.0,1.21846967915e-07,0.0,0.0,0.0,1.21846967915e-07,-0.224551320076,-0.172690972686,9.83240413666,0.00000009,0.0,0.0,0.0,0.00000009,0.0,0.0,0.0,0.00000009
3097890000000,1247,3097890000000,base_link,0.011375278657,-0.0114045029072,0.0167476403117,-0.999729990174,1.0,0.0,0.0,0.0,1.0,0.0,0.0,0.0,1.0,0.00149245141074,-0.00205956399441,0.00302043650299,1.21846967915e-07,0.0,0.0,0.0,1.21846967915e-07,0.0,0.0,0.0,1.21846967915e-07,-0.225331380963,-0.159449100494,9.87231826782,0.00000009,0.0,0.0,0.0,0.00000009,0.0,0.0,0.0,0.00000009
3097910000000,1248,3097910000000,base_link,0.0113027745942,-0.0114677768102,0.0167097502949,-0.999730790964,1.0,0.0,0.0,0.0,1.0,0.0,0.0,0.0,1.0,0.0101636238396,0.001259152079,0.00571720814332,1.21846967915e-07,0.0,0.0,0.0,1.21846967915e-07,0.0,0.0,0.0,1.21846967915e-07,-0.220308870077,-0.189478799701,9.8131570816,0.00000009,0.0,0.0,0.0,0.00000009,0.0,0.0,0.0,0.00000009
3097930000000,1249,3097930000000,base_link,0.0110742958802,-0.0115391373414,0.0166998879323,-0.999732645426,1.0,0.0,0.0,0.0,1.0,0.0,0.0,0.0,1.0,0.0243666339666,0.000756900815759,0.00285748951137,1.21846967915e-07,0.0,0.0,0.0,1.21846967915e-07,0.0,0.0,0.0,1.21846967915e-07,-0.240394204855,-0.132884845138,9.85360717773,0.00000009,0.0,0.0,0.0,0.00000009,0.0,0.0,0.0,0.00000009
3097950000000,1250,3097950000000,base_link,0.0108050086344,-0.0116155289982,0.0166645688733,-0.999735342824,1.0,0.0,0.0,0.0,1.0,0.0,0.0,0.0,1.0,0.0265230163932,0.00241807987913,0.00477573368698,1.21846967915e-07,0.0,0.0,0.0,1.21846967915e-07,0.0,0.0,0.0,1.21846967915e-07,-0.169436916709,-0.236807599664,9.75339889526,0.00000009,0.0,0.0,0.0,0.00000009,0.0,0.0,0.0,0.00000009
3097970000000,1251,3097970000000,base_link,0.0106852975906,-0.0116313243529,0.0166401237011,-0.99973686011,1.0,0.0,0.0,0.0,1.0,0.0,0.0,0.0,1.0,0.0119610298425,-0.0058048623614,0.00558135472238,1.21846967915e-07,0.0,0.0,0.0,1.21846967915e-07,0.0,0.0,0.0,1.21846967915e-07,-0.242867201567,-0.214220404625,9.73909664154,0.00000009,0.0,0.0,0.0,0.00000009,0.0,0.0,0.0,0.00000009
3097990000000,1252,3097990000000,base_link,0.0106463422134,-0.0116402079536,0.0166259202132,-0.999737323726,1.0,0.0,0.0,0.0,1.0,0.0,0.0,0.0,1.0,0.00270711886697,-0.00601330399513,0.00105738686398,1.21846967915e-07,0.0,0.0,0.0,1.21846967915e-07,0.0,0.0,0.0,1.21846967915e-07,-0.211602643132,-0.262167274952,9.71641349792,0.00000009,0.0,0.0,0.0,0.00000009,0.0,0.0,0.0,0.00000009
3098010000000,1253,3098010000000,base_link,0.0105910404444,-0.0116071435863,0.0166144562704,-0.999738503838,1.0,0.0,0.0,0.0,1.0,0.0,0.0,0.0,1.0,0.0108826877549,-0.0135164298117,0.00150413927622,1.21846967915e-07,0.0,0.0,0.0,1.21846967915e-07,0.0,0.0,0.0,1.21846967915e-07,-0.304377913475,-0.207812741399,9.71779918671,0.00000009,0.0,0.0,0.0,0.00000009,0.0,0.0,0.0,0.00000009
3098030000000,1254,3098030000000,base_link,0.0104602035381,-0.0114909815212,0.0166255830384,-0.999741032648,1.0,0.0,0.0,0.0,1.0,0.0,0.0,0.0,1.0,0.0166117101908,-0.0174187533557,0.00164169515483,1.21846967915e-07,0.0,0.0,0.0,1.21846967915e-07,0.0,0.0,0.0,1.21846967915e-07,-0.183580875397,-0.227825850248,9.80601596832,0.00000009,0.0,0.0,0.0,0.00000009,0.0,0.0,0.0,0.00000009
3098050000000,1255,3098050000000,base_link,0.0103676632998,-0.0113912280802,0.0166227170527,-0.999743224285,1.0,0.0,0.0,0.0,1.0,0.0,0.0,0.0,1.0,0.00927765481174,-0.0160763803869,0.000317950325552,1.21846967915e-07,0.0,0.0,0.0,1.21846967915e-07,0.0,0.0,0.0,1.21846967915e-07,-0.190882503986,-0.253443062305,9.81056880951,0.00000009,0.0,0.0,0.0,0.00000009,0.0,0.0,0.0,0.00000009
3098070000000,1256,3098070000000,base_link,0.01038566412,-0.0113676217292,0.0166169850813,-0.999743392872,1.0,0.0,0.0,0.0,1.0,0.0,0.0,0.0,1.0,-0.00454506091774,-0.00657261023298,-0.000739523442462,1.21846967915e-07,0.0,0.0,0.0,1.21846967915e-07,0.0,0.0,0.0,1.21846967915e-07,-0.234421849251,-0.245152682066,9.78092288971,0.00000009,0.0,0.0,0.0,0.00000009,0.0,0.0,0.0,0.00000009
3098090000000,1257,3098090000000,base_link,0.0105258744196,-0.0113447337678,0.0166319472125,-0.999741917732,1.0,0.0,0.0,0.0,1.0,0.0,0.0,0.0,1.0,-0.0104377772659,-0.00942006893456,0.000565806636587,1.21846967915e-07,0.0,0.0,0.0,1.21846967915e-07,0.0,0.0,0.0,1.21846967915e-07,-0.195005521178,-0.270140439272,9.85540962219,0.00000009,0.0,0.0,0.0,0.00000009,0.0,0.0,0.0,0.00000009
3098110000000,1258,3098110000000,base_link,0.0106592483275,-0.0113058465088,0.0166062797818,-0.999741369823,1.0,0.0,0.0,0.0,1.0,0.0,0.0,0.0,1.0,-0.0115755768493,-0.0101171741262,0.00365067063831,1.21846967915e-07,0.0,0.0,0.0,1.21846967915e-07,0.0,0.0,0.0,1.21846967915e-07,-0.200400441885,-0.226395815611,9.82764148712,0.00000009,0.0,0.0,0.0,0.00000009,0.0,0.0,0.0,0.00000009
3098130000000,1259,3098126000000,base_link,0.0107516478637,-0.0112868220018,0.0165687269398,-0.999741243383,1.0,0.0,0.0,0.0,1.0,0.0,0.0,0.0,1.0,-0.010117797181,-0.00862376205623,0.00578557094559,1.21846967915e-07,0.0,0.0,0.0,1.21846967915e-07,0.0,0.0,0.0,1.21846967915e-07,-0.181324273348,-0.160330832005,9.8189163208,0.00000009,0.0,0.0,0.0,0.00000009,0.0,0.0,0.0,0.00000009
3098146000000,1260,3098146000000,base_link,0.0108093639391,-0.0112562287404,0.0165398563485,-0.999741454117,1.0,0.0,0.0,0.0,1.0,0.0,0.0,0.0,1.0,-0.00243784231134,-0.00907283741981,0.00233511021361,1.21846967915e-07,0.0,0.0,0.0,1.21846967915e-07,0.0,0.0,0.0,1.21846967915e-07,-0.197566598654,-0.214707374573,9.80182933807,0.00000009,0.0,0.0,0.0,0.00000009,0.0,0.0,0.0,0.00000009
3098170000000,1261,3098170000000,base_link,0.0109298088691,-0.0112052128409,0.0165182350152,-0.999741074795,1.0,0.0,0.0,0.0,1.0,0.0,0.0,0.0,1.0,-0.007084290497,-0.0121684176847,0.00148632586934,1.21846967915e-07,0.0,0.0,0.0,1.21846967915e-07,0.0,0.0,0.0,1.21846967915e-07,-0.235577777028,-0.189157918096,9.72793960571,0.00000009,0.0,0.0,0.0,0.00000009,0.0,0.0,0.0,0.00000009
3098190000000,1262,3098190000000,base_link,0.0109565797837,-0.0111467395936,0.0164959393324,-0.999741791292,1.0,0.0,0.0,0.0,1.0,0.0,0.0,0.0,1.0,-3.60119156539e-05,-0.0123047139496,0.00193224078976,1.21846967915e-07,0.0,0.0,0.0,1.21846967915e-07,0.0,0.0,0.0,1.21846967915e-07,-0.220617443323,-0.236580625176,9.73408126831,0.00000009,0.0,0.0,0.0,0.00000009,0.0,0.0,0.0,0.00000009
3098210000000,1263,3098210000000,base_link,0.0109150746869,-0.0110728255458,0.0164977095,-0.999743055697,1.0,0.0,0.0,0.0,1.0,0.0,0.0,0.0,1.0,0.00804683659226,-0.0156137505546,-0.00208701845258,1.21846967915e-07,0.0,0.0,0.0,1.21846967915e-07,0.0,0.0,0.0,1.21846967915e-07,-0.293164283037,-0.128562062979,9.74712562561,0.00000009,0.0,0.0,0.0,0.00000009,0.0,0.0,0.0,0.00000009
3098230000000,1264,3098226000000,base_link,0.010788242616,-0.011005818992,0.0164752452298,-0.999745542361,1.0,0.0,0.0,0.0,1.0,0.0,0.0,0.0,1.0,0.0151655375957,-0.0105874855071,0.00292747700587,1.21846967915e-07,0.0,0.0,0.0,1.21846967915e-07,0.0,0.0,0.0,1.21846967915e-07,-0.170096606016,-0.241609692574,9.67842483521,0.00000009,0.0,0.0,0.0,0.00000009,0.0,0.0,0.0,0.00000009
3098250000000,1265,3098250000000,base_link,0.0107166782551,-0.0110195117786,0.0164366808634,-0.99974676462,1.0,0.0,0.0,0.0,1.0,0.0,0.0,0.0,1.0,0.00501773366705,-0.00210107606836,0.00371027505025,1.21846967915e-07,0.0,0.0,0.0,1.21846967915e-07,0.0,0.0,0.0,1.21846967915e-07,-0.265530049801,-0.230098217726,9.73431682587,0.00000009,0.0,0.0,0.0,0.00000009,0.0,0.0,0.0,0.00000009
3098270000000,1266,3098270000000,base_link,0.0106900535167,-0.0111104447053,0.016431496801,-0.999746132417,1.0,0.0,0.0,0.0,1.0,0.0,0.0,0.0,1.0,0.00427864911035,0.00444850046188,0.00124424207024,1.21846967915e-07,0.0,0.0,0.0,1.21846967915e-07,0.0,0.0,0.0,1.21846967915e-07,-0.151161685586,-0.222574368119,9.76646709442,0.00000009,0.0,0.0,0.0,0.00000009,0.0,0.0,0.0,0.00000009
3098290000000,1267,3098290000000,base_link,0.0105901825873,-0.01120382502,0.0164262284449,-0.999746258858,1.0,0.0,0.0,0.0,1.0,0.0,0.0,0.0,1.0,0.0167970899493,0.00258710631169,-0.00191006378736,1.21846967915e-07,0.0,0.0,0.0,1.21846967915e-07,0.0,0.0,0.0,1.21846967915e-07,-0.256494104862,-0.120957091451,9.77122879028,0.00000009,0.0,0.0,0.0,0.00000009,0.0,0.0,0.0,0.00000009
3098310000000,1268,3098310000000,base_link,0.0103576819053,-0.0112741498973,0.0164020361539,-0.999748281906,1.0,0.0,0.0,0.0,1.0,0.0,0.0,0.0,1.0,0.0221781153232,-0.00210385629907,0.00387861090712,1.21846967915e-07,0.0,0.0,0.0,1.21846967915e-07,0.0,0.0,0.0,1.21846967915e-07,-0.224320814013,-0.183550447226,9.75353717804,0.00000009,0.0,0.0,0.0,0.00000009,0.0,0.0,0.0,0.00000009
3098330000000,1269,3098330000000,base_link,0.0102704429503,-0.0112887974912,0.016379192562,-0.999749377724,1.0,0.0,0.0,0.0,1.0,0.0,0.0,0.0,1.0,0.0121278390288,-0.00416985480115,0.00317159877159,1.21846967915e-07,0.0,0.0,0.0,1.21846967915e-07,0.0,0.0,0.0,1.21846967915e-07,-0.167071208358,-0.200304985046,9.87113285065,0.00000009,0.0,0.0,0.0,0.00000009,0.0,0.0,0.0,0.00000009
3098350000000,1270,3098346000000,base_link,0.0102339955575,-0.011369412147,0.0163679815003,-0.99974904055,1.0,0.0,0.0,0.0,1.0,0.0,0.0,0.0,1.0,0.00241653691046,0.00275504332967,0.00390337407589,1.21846967915e-07,0.0,0.0,0.0,1.21846967915e-07,0.0,0.0,0.0,1.21846967915e-07,-0.24025157094,-0.244013383985,9.81135749817,0.00000009,0.0,0.0,0.0,0.00000009,0.0,0.0,0.0,0.00000009
3098370000000,1271,3098370000000,base_link,0.0101883176345,-0.0114857953597,0.0163649890741,-0.99974823976,1.0,0.0,0.0,0.0,1.0,0.0,0.0,0.0,1.0,0.0116389393806,0.0100767901167,-0.00118727376685,1.21846967915e-07,0.0,0.0,0.0,1.21846967915e-07,0.0,0.0,0.0,1.21846967915e-07,-0.217385143042,-0.247940793633,9.8095369339,0.00000009,0.0,0.0,0.0,0.00000009,0.0,0.0,0.0,0.00000009
3098390000000,1272,3098390000000,base_link,0.00994631133588,-0.0115810331609,0.0163487625374,-0.999749799193,1.0,0.0,0.0,0.0,1.0,0.0,0.0,0.0,1.0,0.0288970340043,0.00368167320266,0.002808655845,1.21846967915e-07,0.0,0.0,0.0,1.21846967915e-07,0.0,0.0,0.0,1.21846967915e-07,-0.288903832436,-0.26337274909,9.73222255707,0.00000009,0.0,0.0,0.0,0.00000009,0.0,0.0,0.0,0.00000009
3098410000000,1273,3098410000000,base_link,0.00969898737265,-0.0116078593007,0.0163250338617,-0.999752285857,1.0,0.0,0.0,0.0,1.0,0.0,0.0,0.0,1.0,0.0229146927595,-0.0021605619695,0.000320686987834,1.21846967915e-07,0.0,0.0,0.0,1.21846967915e-07,0.0,0.0,0.0,1.21846967915e-07,-0.274824291468,-0.282910108566,9.70756530762,0.00000009,0.0,0.0,0.0,0.00000009,0.0,0.0,0.0,0.00000009
3098430000000,1274,3098430000000,base_link,0.00965643543695,-0.0115851600124,0.016302696032,-0.999753381675,1.0,0.0,0.0,0.0,1.0,0.0,0.0,0.0,1.0,0.00683706440032,-0.00941047631204,0.00203059706837,1.21846967915e-07,0.0,0.0,0.0,1.21846967915e-07,0.0,0.0,0.0,1.21846967915e-07,-0.272170215845,-0.145387962461,9.65174007416,0.00000009,0.0,0.0,0.0,0.00000009,0.0,0.0,0.0,0.00000009
3098450000000,1275,3098446000000,base_link,0.00973090463773,-0.0116270424553,0.0163009680112,-0.99975224371,1.0,0.0,0.0,0.0,1.0,0.0,0.0,0.0,1.0,-0.00972436647862,-0.000595345918555,-0.000720340758562,1.21846967915e-07,0.0,0.0,0.0,1.21846967915e-07,0.0,0.0,0.0,1.21846967915e-07,-0.302286535501,-0.187160298228,9.46595096588,0.00000009,0.0,0.0,0.0,0.00000009,0.0,0.0,0.0,0.00000009
3098470000000,1276,3098466000000,base_link,0.00988208587725,-0.0117271143848,0.0163364135108,-0.999748998403,1.0,0.0,0.0,0.0,1.0,0.0,0.0,0.0,1.0,-0.0136218480766,0.00440412014723,-0.00569133274257,1.21846967915e-07,0.0,0.0,0.0,1.21846967915e-07,0.0,0.0,0.0,1.21846967915e-07,-0.223952323198,-0.239349544048,9.26784324646,0.00000009,0.0,0.0,0.0,0.00000009,0.0,0.0,0.0,0.00000009
3098490000000,1277,3098490000000,base_link,0.00996289645005,-0.0119041621825,0.0163372564477,-0.999746048123,1.0,0.0,0.0,0.0,1.0,0.0,0.0,0.0,1.0,-0.00368840713054,0.0135854268447,-0.000262348883552,1.21846967915e-07,0.0,0.0,0.0,1.21846967915e-07,0.0,0.0,0.0,1.21846967915e-07,-0.252990335226,-0.198137074709,9.09600162506,0.00000009,0.0,0.0,0.0,0.00000009,0.0,0.0,0.0,0.00000009
3098510000000,1278,3098510000000,base_link,0.00997704083362,-0.0121610022785,0.0163287427843,-0.999742929257,1.0,0.0,0.0,0.0,1.0,0.0,0.0,0.0,1.0,-7.84297590144e-05,0.0239232927561,0.000895593548194,1.21846967915e-07,0.0,0.0,0.0,1.21846967915e-07,0.0,0.0,0.0,1.21846967915e-07,-0.269786626101,-0.204277262092,8.90151596069,0.00000009,0.0,0.0,0.0,0.00000009,0.0,0.0,0.0,0.00000009
3098530000000,1279,3098530000000,base_link,0.0100417021664,-0.0125248611254,0.0163409653704,-0.999737618754,1.0,0.0,0.0,0.0,1.0,0.0,0.0,0.0,1.0,-0.00614598346874,0.0221681017429,-0.00152599136345,1.21846967915e-07,0.0,0.0,0.0,1.21846967915e-07,0.0,0.0,0.0,1.21846967915e-07,-0.278878718615,-0.236722528934,8.69157218933,0.00000009,0.0,0.0,0.0,0.00000009,0.0,0.0,0.0,0.00000009
3098550000000,1280,3098550000000,base_link,0.0101825276289,-0.0126876062419,0.0163533986907,-0.999733951978,1.0,0.0,0.0,0.0,1.0,0.0,0.0,0.0,1.0,-0.0182554833591,0.0137892561033,-0.00152450217865,1.21846967915e-07,0.0,0.0,0.0,1.21846967915e-07,0.0,0.0,0.0,1.21846967915e-07,-0.357513010502,-0.258258312941,8.57710456848,0.00000009,0.0,0.0,0.0,0.00000009,0.0,0.0,0.0,0.00000009
3098570000000,1281,3098570000000,base_link,0.0104933080354,-0.0129102100083,0.0163268040293,-0.999728346447,1.0,0.0,0.0,0.0,1.0,0.0,0.0,0.0,1.0,-0.027694394812,0.0102977380157,0.00150412553921,1.21846967915e-07,0.0,0.0,0.0,1.21846967915e-07,0.0,0.0,0.0,1.21846967915e-07,-0.172269657254,-0.231849581003,8.41551589966,0.00000009,0.0,0.0,0.0,0.00000009,0.0,0.0,0.0,0.00000009
3098590000000,1282,3098590000000,base_link,0.010768286999,-0.0130854594855,0.0162827605726,-0.999723836734,1.0,0.0,0.0,0.0,1.0,0.0,0.0,0.0,1.0,-0.0290460735559,0.0147406803444,0.00448763091117,1.21846967915e-07,0.0,0.0,0.0,1.21846967915e-07,0.0,0.0,0.0,1.21846967915e-07,-0.258860647678,-0.194774463773,8.34879493713,0.00000009,0.0,0.0,0.0,0.00000009,0.0,0.0,0.0,0.00000009
3098610000000,1283,3098610000000,base_link,0.0109867895973,-0.0133715521286,0.0162889140125,-0.999717599001,1.0,0.0,0.0,0.0,1.0,0.0,0.0,0.0,1.0,-0.0163699798286,0.0172126740217,-0.00251892325468,1.21846967915e-07,0.0,0.0,0.0,1.21846967915e-07,0.0,0.0,0.0,1.21846967915e-07,-0.269674420357,-0.170841664076,8.38392543793,0.00000009,0.0,0.0,0.0,0.00000009,0.0,0.0,0.0,0.00000009
3098630000000,1284,3098630000000,base_link,0.0111553183808,-0.013590089465,0.0162889983062,-0.99971279426,1.0,0.0,0.0,0.0,1.0,0.0,0.0,0.0,1.0,-0.0205387882888,0.0188060849905,-0.00116695021279,1.21846967915e-07,0.0,0.0,0.0,1.21846967915e-07,0.0,0.0,0.0,1.21846967915e-07,-0.193274080753,-0.197724401951,8.41530323029,0.00000009,0.0,0.0,0.0,0.00000009,0.0,0.0,0.0,0.00000009
3098650000000,1285,3098650000000,base_link,0.0113214132662,-0.0137468130974,0.0162733196785,-0.999709001044,1.0,0.0,0.0,0.0,1.0,0.0,0.0,0.0,1.0,-0.0120513513684,0.00247415294871,0.000138714967761,1.21846967915e-07,0.0,0.0,0.0,1.21846967915e-07,0.0,0.0,0.0,1.21846967915e-07,-0.248274996877,-0.296407610178,8.53579902649,0.00000009,0.0,0.0,0.0,0.00000009,0.0,0.0,0.0,0.00000009
3098670000000,1286,3098670000000,base_link,0.0113988317586,-0.0137981663982,0.0162377477384,-0.999707989519,1.0,0.0,0.0,0.0,1.0,0.0,0.0,0.0,1.0,-0.00564559455961,-0.00152543489821,0.00238215806894,1.21846967915e-07,0.0,0.0,0.0,1.21846967915e-07,0.0,0.0,0.0,1.21846967915e-07,-0.183866471052,-0.219581782818,8.64398860931,0.00000009,0.0,0.0,0.0,0.00000009,0.0,0.0,0.0,0.00000009
3098690000000,1287,3098690000000,base_link,0.0114646509773,-0.0138905005944,0.0161660980959,-0.999707146582,1.0,0.0,0.0,0.0,1.0,0.0,0.0,0.0,1.0,-0.00467854551971,0.00104252784513,0.00576407369226,1.21846967915e-07,0.0,0.0,0.0,1.21846967915e-07,0.0,0.0,0.0,1.21846967915e-07,-0.206955209374,-0.189301431179,8.69581317902,0.00000009,0.0,0.0,0.0,0.00000009,0.0,0.0,0.0,0.00000009
3098710000000,1288,3098710000000,base_link,0.0115341426517,-0.0139162897735,0.016148269979,-0.999706261498,1.0,0.0,0.0,0.0,1.0,0.0,0.0,0.0,1.0,-0.00726114213467,-0.00460570957512,0.000379233213607,1.21846967915e-07,0.0,0.0,0.0,1.21846967915e-07,0.0,0.0,0.0,1.21846967915e-07,-0.226963415742,-0.239211022854,8.73801898956,0.00000009,0.0,0.0,0.0,0.00000009,0.0,0.0,0.0,0.00000009
3098730000000,1289,3098730000000,base_link,0.0116493115494,-0.0139241369899,0.0161259742961,-0.999705123534,1.0,0.0,0.0,0.0,1.0,0.0,0.0,0.0,1.0,-0.00788436923176,-0.00771334022284,0.00293180719018,1.21846967915e-07,0.0,0.0,0.0,1.21846967915e-07,0.0,0.0,0.0,1.21846967915e-07,-0.193097189069,-0.181176230311,8.83288288116,0.00000009,0.0,0.0,0.0,0.00000009,0.0,0.0,0.0,0.00000009
3098750000000,1290,3098750000000,base_link,0.0116635214582,-0.0139238855905,0.0160974408797,-0.999705502855,1.0,0.0,0.0,0.0,1.0,0.0,0.0,0.0,1.0,-0.0015280332882,-0.00509476847947,0.00378212146461,1.21846967915e-07,0.0,0.0,0.0,1.21846967915e-07,0.0,0.0,0.0,1.21846967915e-07,-0.259281903505,-0.216085806489,8.75180625916,0.00000009,0.0,0.0,0.0,0.00000009,0.0,0.0,0.0,0.00000009
3098770000000,1291,3098770000000,base_link,0.0115747444725,-0.0138660468611,0.0161239512474,-0.999706893701,1.0,0.0,0.0,0.0,1.0,0.0,0.0,0.0,1.0,0.0130242723972,-0.0132455788553,-0.00331061519682,1.21846967915e-07,0.0,0.0,0.0,1.21846967915e-07,0.0,0.0,0.0,1.21846967915e-07,-0.202214419842,-0.235179305077,8.70549869537,0.00000009,0.0,0.0,0.0,0.00000009,0.0,0.0,0.0,0.00000009
3098790000000,1292,3098790000000,base_link,0.0113313152238,-0.0137548130138,0.0162477365415,-0.999709211778,1.0,0.0,0.0,0.0,1.0,0.0,0.0,0.0,1.0,0.0313154421747,-0.0139542911202,-0.0159720666707,1.21846967915e-07,0.0,0.0,0.0,1.21846967915e-07,0.0,0.0,0.0,1.21846967915e-07,-0.187773481011,-0.114963203669,8.74778270721,0.00000009,0.0,0.0,0.0,0.00000009,0.0,0.0,0.0,0.00000009
3098810000000,1293,3098810000000,base_link,0.0107158597769,-0.0138229731936,0.0164966979756,-0.999710939799,1.0,0.0,0.0,0.0,1.0,0.0,0.0,0.0,1.0,0.0602571517229,0.00646224850789,-0.0214361753315,1.21846967915e-07,0.0,0.0,0.0,1.21846967915e-07,0.0,0.0,0.0,1.21846967915e-07,-0.242596745491,-0.225736126304,8.61907577515,0.00000009,0.0,0.0,0.0,0.00000009,0.0,0.0,0.0,0.00000009
3098826000000,1294,3098826000000,base_link,0.0101012932004,-0.0140843913264,0.0167970364181,-0.999708748163,1.0,0.0,0.0,0.0,1.0,0.0,0.0,0.0,1.0,0.0865933597088,0.0363390520215,-0.0436297543347,1.21846967915e-07,0.0,0.0,0.0,1.21846967915e-07,0.0,0.0,0.0,1.21846967915e-07,-0.300217777491,-0.154804900289,8.63733768463,0.00000009,0.0,0.0,0.0,0.00000009,0.0,0.0,0.0,0.00000009
3098850000000,1295,3098850000000,base_link,0.00907787700404,-0.0147135869752,0.01738077027,-0.999699475856,1.0,0.0,0.0,0.0,1.0,0.0,0.0,0.0,1.0,0.116080582142,0.0746129453182,-0.0623221583664,1.21846967915e-07,0.0,0.0,0.0,1.21846967915e-07,0.0,0.0,0.0,1.21846967915e-07,-0.207689061761,-0.170388862491,8.66002941132,0.00000009,0.0,0.0,0.0,0.00000009,0.0,0.0,0.0,0.00000009
3098866000000,1296,3098866000000,base_link,0.00766694473715,-0.0158720727904,0.0181254207895,-0.999680341187,1.0,0.0,0.0,0.0,1.0,0.0,0.0,0.0,1.0,0.146098136902,0.120459988713,-0.07441727072,1.21846967915e-07,0.0,0.0,0.0,1.21846967915e-07,0.0,0.0,0.0,1.21846967915e-07,-0.30680423975,-0.195587396622,8.58493041992,0.00000009,0.0,0.0,0.0,0.00000009,0.0,0.0,0.0,0.00000009
3098890000000,1297,3098890000000,base_link,0.00594572704224,-0.0174398469807,0.0190797940272,-0.999648225288,1.0,0.0,0.0,0.0,1.0,0.0,0.0,0.0,1.0,0.183715105057,0.167045116425,-0.100520148873,1.21846967915e-07,0.0,0.0,0.0,1.21846967915e-07,0.0,0.0,0.0,1.21846967915e-07,-0.309909164906,-0.163424223661,8.65189552307,0.00000009,0.0,0.0,0.0,0.00000009,0.0,0.0,0.0,0.00000009
3098910000000,1298,3098910000000,base_link,0.00336464350272,-0.0199074132521,0.0205763021773,-0.999584457106,1.0,0.0,0.0,0.0,1.0,0.0,0.0,0.0,1.0,0.225382611156,0.215705692768,-0.123834244907,1.21846967915e-07,0.0,0.0,0.0,1.21846967915e-07,0.0,0.0,0.0,1.21846967915e-07,-0.223118245602,-0.153062239289,8.64067745209,0.00000009,0.0,0.0,0.0,0.00000009,0.0,0.0,0.0,0.00000009
3098930000000,1299,3098930000000,base_link,0.00118687962021,-0.0220627787188,0.0217939667776,-0.999518328701,1.0,0.0,0.0,0.0,1.0,0.0,0.0,0.0,1.0,0.285510540009,0.283960551023,-0.150605887175,1.21846967915e-07,0.0,0.0,0.0,1.21846967915e-07,0.0,0.0,0.0,1.21846967915e-07,-0.263449013233,-0.196795642376,8.68363666534,0.00000009,0.0,0.0,0.0,0.00000009,0.0,0.0,0.0,0.00000009
3098950000000,1300,3098950000000,base_link,-0.0026787285679,-0.0257957534089,0.0239061139439,-0.999377811108,1.0,0.0,0.0,0.0,1.0,0.0,0.0,0.0,1.0,0.329839617014,0.31976878643,-0.173538193107,1.21846967915e-07,0.0,0.0,0.0,1.21846967915e-07,0.0,0.0,0.0,1.21846967915e-07,-0.28957477212,-0.167988851666,8.68295764923,0.00000009,0.0,0.0,0.0,0.00000009,0.0,0.0,0.0,0.00000009
3098970000000,1301,3098970000000,base_link,-0.00550366587037,-0.0284685458566,0.0255410744913,-0.999253225024,1.0,0.0,0.0,0.0,1.0,0.0,0.0,0.0,1.0,0.361722052097,0.34437507391,-0.198518484831,1.21846967915e-07,0.0,0.0,0.0,1.21846967915e-07,0.0,0.0,0.0,1.21846967915e-07,-0.343957483768,-0.126566633582,8.67346477509,0.00000009,0.0,0.0,0.0,0.00000009,0.0,0.0,0.0,0.00000009
3098990000000,1302,3098990000000,base_link,-0.0101941794215,-0.0328002659205,0.0283271497653,-0.999008436128,1.0,0.0,0.0,0.0,1.0,0.0,0.0,0.0,1.0,0.397394567728,0.36881518364,-0.231515303254,1.21846967915e-07,0.0,0.0,0.0,1.21846967915e-07,0.0,0.0,0.0,1.21846967915e-07,-0.266804009676,-0.134283855557,8.60125350952,0.00000009,0.0,0.0,0.0,0.00000009,0.0,0.0,0.0,0.00000009
3099010000000,1303,3099010000000,base_link,-0.0136097560736,-0.0359064425577,0.0304269057581,-0.998799134878,1.0,0.0,0.0,0.0,1.0,0.0,0.0,0.0,1.0,0.433780550957,0.396768122911,-0.257976412773,1.21846967915e-07,0.0,0.0,0.0,1.21846967915e-07,0.0,0.0,0.0,1.21846967915e-07,-0.327993392944,-0.113285593688,8.76999378204,0.00000009,0.0,0.0,0.0,0.00000009,0.0,0.0,0.0,0.00000009
3099030000000,1304,3099030000000,base_link,-0.018229525481,-0.0399316397877,0.0332741361092,-0.998481895549,1.0,0.0,0.0,0.0,1.0,0.0,0.0,0.0,1.0,0.48030269146,0.411134600639,-0.28265991807,1.21846967915e-07,0.0,0.0,0.0,1.21846967915e-07,0.0,0.0,0.0,1.21846967915e-07,-0.340652912855,-0.0503791384399,8.79409408569,0.00000009,0.0,0.0,0.0,0.00000009,0.0,0.0,0.0,0.00000009
3099050000000,1305,3099046000000,base_link,-0.0233517972752,-0.0439931926258,0.0364048883103,-0.998095156067,1.0,0.0,0.0,0.0,1.0,0.0,0.0,0.0,1.0,0.519935131073,0.413566827774,-0.304628312588,1.21846967915e-07,0.0,0.0,0.0,1.21846967915e-07,0.0,0.0,0.0,1.21846967915e-07,-0.301153004169,-0.126138225198,8.75997447968,0.00000009,0.0,0.0,0.0,0.00000009,0.0,0.0,0.0,0.00000009
3099070000000,1306,3099070000000,base_link,-0.0300722894187,-0.0489716488361,0.040520907389,-0.997524698473,1.0,0.0,0.0,0.0,1.0,0.0,0.0,0.0,1.0,0.571495652199,0.422495424747,-0.334804981947,1.21846967915e-07,0.0,0.0,0.0,1.21846967915e-07,0.0,0.0,0.0,1.21846967915e-07,-0.33768928051,-0.0101842815056,8.75473690033,0.00000009,0.0,0.0,0.0,0.00000009,0.0,0.0,0.0,0.00000009
3099090000000,1307,3099090000000,base_link,-0.0360525459251,-0.0531389204583,0.0442766552067,-0.996953397941,1.0,0.0,0.0,0.0,1.0,0.0,0.0,0.0,1.0,0.606525182724,0.426863312721,-0.363963723183,1.21846967915e-07,0.0,0.0,0.0,1.21846967915e-07,0.0,0.0,0.0,1.21846967915e-07,-0.34206444025,-0.0750990658998,8.72319316864,0.00000009,0.0,0.0,0.0,0.00000009,0.0,0.0,0.0,0.00000009
3099110000000,1308,3099110000000,base_link,-0.0410888763439,-0.0564859037729,0.0475019849358,-0.996425972279,1.0,0.0,0.0,0.0,1.0,0.0,0.0,0.0,1.0,0.636038661003,0.427358984947,-0.386604607105,1.21846967915e-07,0.0,0.0,0.0,1.21846967915e-07,0.0,0.0,0.0,1.21846967915e-07,-0.322537153959,-0.123283863068,8.79010009766,0.00000009,0.0,0.0,0.0,0.00000009,0.0,0.0,0.0,0.00000009
3099130000000,1309,3099130000000,base_link,-0.0491823218341,-0.0614810988676,0.0525077239866,-0.995512017869,1.0,0.0,0.0,0.0,1.0,0.0,0.0,0.0,1.0,0.689834058285,0.426650315523,-0.398420929909,1.21846967915e-07,0.0,0.0,0.0,1.21846967915e-07,0.0,0.0,0.0,1.21846967915e-07,-0.397734940052,-0.125223979354,8.82267951965,0.00000009,0.0,0.0,0.0,0.00000009,0.0,0.0,0.0,0.00000009
3099150000000,1310,3099150000000,base_link,-0.0563338076505,-0.0655687234828,0.0570181532737,-0.994623688743,1.0,0.0,0.0,0.0,1.0,0.0,0.0,0.0,1.0,0.729160070419,0.420226633549,-0.433832615614,1.21846967915e-07,0.0,0.0,0.0,1.21846967915e-07,0.0,0.0,0.0,1.21846967915e-07,-0.386951684952,0.0214796215296,8.78337955475,0.00000009,0.0,0.0,0.0,0.00000009,0.0,0.0,0.0,0.00000009
3099170000000,1311,3099170000000,base_link,-0.0621381949069,-0.0687391177583,0.0608047525845,-0.993839293745,1.0,0.0,0.0,0.0,1.0,0.0,0.0,0.0,1.0,0.738241255283,0.408547252417,-0.452012598515,1.21846967915e-07,0.0,0.0,0.0,1.21846967915e-07,0.0,0.0,0.0,1.21846967915e-07,-0.373571872711,0.0720866024494,8.79846668243,0.00000009,0.0,0.0,0.0,0.00000009,0.0,0.0,0.0,0.00000009
3099190000000,1312,3099190000000,base_link,-0.0707863653634,-0.0733271545401,0.0667380594773,-0.992551496789,1.0,0.0,0.0,0.0,1.0,0.0,0.0,0.0,1.0,0.732526421547,0.39055711031,-0.476815998554,1.21846967915e-07,0.0,0.0,0.0,1.21846967915e-07,0.0,0.0,0.0,1.21846967915e-07,-0.466014415026,-0.0682701840997,8.8639497757,0.00000009,0.0,0.0,0.0,0.00000009,0.0,0.0,0.0,0.00000009
3099210000000,1313,3099210000000,base_link,-0.0764913074498,-0.0763041155354,0.0708501588991,-0.991618365563,1.0,0.0,0.0,0.0,1.0,0.0,0.0,0.0,1.0,0.731128692627,0.380577176809,-0.493197858334,1.21846967915e-07,0.0,0.0,0.0,1.21846967915e-07,0.0,0.0,0.0,1.21846967915e-07,-0.462157815695,0.0367447398603,8.88262081146,0.00000009,0.0,0.0,0.0,0.00000009,0.0,0.0,0.0,0.00000009
3099230000000,1314,3099230000000,base_link,-0.0836811865859,-0.0800365816541,0.0761214652424,-0.990352021353,1.0,0.0,0.0,0.0,1.0,0.0,0.0,0.0,1.0,0.739350676537,0.385942041874,-0.511684000492,1.21846967915e-07,0.0,0.0,0.0,1.21846967915e-07,0.0,0.0,0.0,1.21846967915e-07,-0.448241740465,0.0248068720102,8.87862968445,0.00000009,0.0,0.0,0.0,0.00000009,0.0,0.0,0.0,0.00000009
3099250000000,1315,3099250000000,base_link,-0.0907981072121,-0.083733330634,0.0816207017424,-0.988980562902,1.0,0.0,0.0,0.0,1.0,0.0,0.0,0.0,1.0,0.727886378765,0.373267233372,-0.5369566679,1.21846967915e-07,0.0,0.0,0.0,1.21846967915e-07,0.0,0.0,0.0,1.21846967915e-07,-0.433596551418,0.0312698930502,8.92376899719,0.00000009,0.0,0.0,0.0,0.00000009,0.0,0.0,0.0,0.00000009
3099270000000,1316,3099270000000,base_link,-0.0975795400766,-0.0872494159952,0.0872806441758,-0.987546347794,1.0,0.0,0.0,0.0,1.0,0.0,0.0,0.0,1.0,0.691528558731,0.347802400589,-0.554076552391,1.21846967915e-07,0.0,0.0,0.0,1.21846967915e-07,0.0,0.0,0.0,1.21846967915e-07,-0.43559268117,-0.0196686889976,8.96949100494,0.00000009,0.0,0.0,0.0,0.00000009,0.0,0.0,0.0,0.00000009
3099290000000,1317,3099290000000,base_link,-0.103950875873,-0.0905989557796,0.0931176033729,-0.986060376356,1.0,0.0,0.0,0.0,1.0,0.0,0.0,0.0,1.0,0.661622583866,0.33372759819,-0.5659263134,1.21846967915e-07,0.0,0.0,0.0,1.21846967915e-07,0.0,0.0,0.0,1.21846967915e-07,-0.49581694603,0.0320698954165,8.9368019104,0.00000009,0.0,0.0,0.0,0.00000009,0.0,0.0,0.0,0.00000009
3099310000000,1318,3099310000000,base_link,-0.111142501295,-0.0945048484524,0.100287203773,-0.984204566322,1.0,0.0,0.0,0.0,1.0,0.0,0.0,0.0,1.0,0.627595841885,0.318284004927,-0.587196230888,1.21846967915e-07,0.0,0.0,0.0,1.21846967915e-07,0.0,0.0,0.0,1.21846967915e-07,-0.581602275372,0.0398209504783,8.94870090485,0.00000009,0.0,0.0,0.0,0.00000009,0.0,0.0,0.0,0.00000009
3099326000000,1319,3099326000000,base_link,-0.115742719174,-0.0970733880361,0.105236845368,-0.982906696269,1.0,0.0,0.0,0.0,1.0,0.0,0.0,0.0,1.0,0.610883235931,0.313530236483,-0.606090307236,1.21846967915e-07,0.0,0.0,0.0,1.21846967915e-07,0.0,0.0,0.0,1.21846967915e-07,-0.524185776711,0.157068699598,8.99963951111,0.00000009,0.0,0.0,0.0,0.00000009,0.0,0.0,0.0,0.00000009
3099350000000,1320,3099350000000,base_link,-0.122347804027,-0.10079472361,0.11285632123,-0.980884743359,1.0,0.0,0.0,0.0,1.0,0.0,0.0,0.0,1.0,0.591657519341,0.300705164671,-0.62349820137,1.21846967915e-07,0.0,0.0,0.0,1.21846967915e-07,0.0,0.0,0.0,1.21846967915e-07,-0.572673976421,0.224211215973,9.02729225159,0.00000009,0.0,0.0,0.0,0.00000009,0.0,0.0,0.0,0.00000009
3099370000000,1321,3099370000000,base_link,-0.127414567104,-0.103865294722,0.119316126554,-0.979153308675,1.0,0.0,0.0,0.0,1.0,0.0,0.0,0.0,1.0,0.545201063156,0.291100412607,-0.640948116779,1.21846967915e-07,0.0,0.0,0.0,1.21846967915e-07,0.0,0.0,0.0,1.21846967915e-07,-0.487724632025,0.0652988031507,8.98315811157,0.00000009,0.0,0.0,0.0,0.00000009,0.0,0.0,0.0,0.00000009
3099390000000,1322,3099390000000,base_link,-0.132032573588,-0.106903684738,0.125879781713,-0.977391106792,1.0,0.0,0.0,0.0,1.0,0.0,0.0,0.0,1.0,0.50187921524,0.278631150723,-0.656086623669,1.21846967915e-07,0.0,0.0,0.0,1.21846967915e-07,0.0,0.0,0.0,1.21846967915e-07,-0.615965604782,0.138412520289,8.96286010742,0.00000009,0.0,0.0,0.0,0.00000009,0.0,0.0,0.0,0.00000009
3099410000000,1323,3099410000000,base_link,-0.135449930944,-0.109282340916,0.131241956662,-0.975953983552,1.0,0.0,0.0,0.0,1.0,0.0,0.0,0.0,1.0,0.466826111078,0.265551686287,-0.67332983017,1.21846967915e-07,0.0,0.0,0.0,1.21846967915e-07,0.0,0.0,0.0,1.21846967915e-07,-0.705967843533,0.11120980233,8.93422794342,0.00000009,0.0,0.0,0.0,0.00000009,0.0,0.0,0.0,0.00000009
3099430000000,1324,3099430000000,base_link,-0.139350864119,-0.112062842269,0.137988782025,-0.974157305546,1.0,0.0,0.0,0.0,1.0,0.0,0.0,0.0,1.0,0.43578055501,0.237071543932,-0.678317725658,1.21846967915e-07,0.0,0.0,0.0,1.21846967915e-07,0.0,0.0,0.0,1.21846967915e-07,-0.731377005577,0.122485876083,8.93573856354,0.00000009,0.0,0.0,0.0,0.00000009,0.0,0.0,0.0,0.00000009
3099450000000,1325,3099450000000,base_link,-0.143539997443,-0.11522519407,0.146220778035,-0.971976754045,1.0,0.0,0.0,0.0,1.0,0.0,0.0,0.0,1.0,0.40464413166,0.222310483456,-0.692004799843,1.21846967915e-07,0.0,0.0,0.0,1.21846967915e-07,0.0,0.0,0.0,1.21846967915e-07,-0.745691120625,0.184784218669,8.94857978821,0.00000009,0.0,0.0,0.0,0.00000009,0.0,0.0,0.0,0.00000009
3099466000000,1326,3099470000000,base_link,-0.146679462188,-0.117762066882,0.153195702142,-0.970128066829,1.0,0.0,0.0,0.0,1.0,0.0,0.0,0.0,1.0,0.376640588045,0.207966253161,-0.704310297966,1.21846967915e-07,0.0,0.0,0.0,1.21846967915e-07,0.0,0.0,0.0,1.21846967915e-07,-0.769314467907,0.272044271231,8.91197681427,0.00000009,0.0,0.0,0.0,0.00000009,0.0,0.0,0.0,0.00000009
3099490000000,1327,3099490000000,base_link,-0.148936091385,-0.119692769232,0.158807133553,-0.968644413468,1.0,0.0,0.0,0.0,1.0,0.0,0.0,0.0,1.0,0.336428701878,0.189938157797,-0.710396587849,1.21846967915e-07,0.0,0.0,0.0,1.21846967915e-07,0.0,0.0,0.0,1.21846967915e-07,-0.71698486805,0.257610291243,9.03150367737,0.00000009,0.0,0.0,0.0,0.00000009,0.0,0.0,0.0,0.00000009
3099510000000,1328,3099510000000,base_link,-0.151302060044,-0.122144901854,0.165843423471,-0.96679066863,1.0,0.0,0.0,0.0,1.0,0.0,0.0,0.0,1.0,0.285803735256,0.177549600601,-0.721153140068,1.21846967915e-07,0.0,0.0,0.0,1.21846967915e-07,0.0,0.0,0.0,1.21846967915e-07,-0.87201333046,0.248783171177,9.05418205261,0.00000009,0.0,0.0,0.0,0.00000009,0.0,0.0,0.0,0.00000009
3099530000000,1329,3099530000000,base_link,-0.153079612599,-0.124437386165,0.172926833566,-0.964975867479,1.0,0.0,0.0,0.0,1.0,0.0,0.0,0.0,1.0,0.23475459218,0.151755481958,-0.731133103371,1.21846967915e-07,0.0,0.0,0.0,1.21846967915e-07,0.0,0.0,0.0,1.21846967915e-07,-0.793264389038,0.277746915817,9.13024425507,0.00000009,0.0,0.0,0.0,0.00000009,0.0,0.0,0.0,0.00000009
3099550000000,1330,3099550000000,base_link,-0.154519514898,-0.126598784558,0.180088004597,-0.963153522044,1.0,0.0,0.0,0.0,1.0,0.0,0.0,0.0,1.0,0.215088129044,0.134423941374,-0.738589048386,1.21846967915e-07,0.0,0.0,0.0,1.21846967915e-07,0.0,0.0,0.0,1.21846967915e-07,-0.954672813416,0.382056117058,9.1507062912,0.00000009,0.0,0.0,0.0,0.00000009,0.0,0.0,0.0,0.00000009
3099570000000,1331,3099570000000,base_link,-0.15608432465,-0.12901986549,0.188750024903,-0.960918896136,1.0,0.0,0.0,0.0,1.0,0.0,0.0,0.0,1.0,0.208659037948,0.117516607046,-0.744127035141,1.21846967915e-07,0.0,0.0,0.0,1.21846967915e-07,0.0,0.0,0.0,1.21846967915e-07,-0.906431853771,0.317690432072,9.21041965485,0.00000009,0.0,0.0,0.0,0.00000009,0.0,0.0,0.0,0.00000009
3099590000000,1332,3099590000000,base_link,-0.156912431198,-0.130442126698,0.194586689072,-0.959426560523,1.0,0.0,0.0,0.0,1.0,0.0,0.0,0.0,1.0,0.19073677063,0.0937009006739,-0.750619709492,1.21846967915e-07,0.0,0.0,0.0,1.21846967915e-07,0.0,0.0,0.0,1.21846967915e-07,-1.01845753193,0.31921672821,9.27486896515,0.00000009,0.0,0.0,0.0,0.00000009,0.0,0.0,0.0,0.00000009
3099606000000,1333,3099606000000,base_link,-0.157560608898,-0.132300105977,0.203326090992,-0.957251277378,1.0,0.0,0.0,0.0,1.0,0.0,0.0,0.0,1.0,0.14510551095,0.0616241171956,-0.752215981483,1.21846967915e-07,0.0,0.0,0.0,1.21846967915e-07,0.0,0.0,0.0,1.21846967915e-07,-0.9615650177,0.301659375429,9.42061710358,0.00000009,0.0,0.0,0.0,0.00000009,0.0,0.0,0.0,0.00000009
3099630000000,1334,3099630000000,base_link,-0.157606294765,-0.133408274382,0.209188928354,-0.95582549164,1.0,0.0,0.0,0.0,1.0,0.0,0.0,0.0,1.0,0.102300643921,0.0332637429237,-0.757415354252,1.21846967915e-07,0.0,0.0,0.0,1.21846967915e-07,0.0,0.0,0.0,1.21846967915e-07,-1.14666843414,0.322392553091,9.50147533417,0.00000009,0.0,0.0,0.0,0.00000009,0.0,0.0,0.0,0.00000009
3099650000000,1335,3099650000000,base_link,-0.15751697769,-0.134838240561,0.218019746788,-0.953663737633,1.0,0.0,0.0,0.0,1.0,0.0,0.0,0.0,1.0,0.0952747017145,0.00959926657379,-0.758998632431,1.21846967915e-07,0.0,0.0,0.0,1.21846967915e-07,0.0,0.0,0.0,1.21846967915e-07,-1.13897800446,0.478138625622,9.56484413147,0.00000009,0.0,0.0,0.0,0.00000009,0.0,0.0,0.0,0.00000009
3099670000000,1336,3099666000000,base_link,-0.157402672144,-0.135623755743,0.223956973338,-0.952194245613,1.0,0.0,0.0,0.0,1.0,0.0,0.0,0.0,1.0,0.0952555388212,-0.00905192177743,-0.764649987221,1.21846967915e-07,0.0,0.0,0.0,1.21846967915e-07,0.0,0.0,0.0,1.21846967915e-07,-1.19126439095,0.477391451597,9.61752033234,0.00000009,0.0,0.0,0.0,0.00000009,0.0,0.0,0.0,0.00000009
3099690000000,1337,3099690000000,base_link,-0.157095849014,-0.13654486919,0.231338024477,-0.950346822802,1.0,0.0,0.0,0.0,1.0,0.0,0.0,0.0,1.0,0.0741274729371,-0.0203125942498,-0.763074696064,1.21846967915e-07,0.0,0.0,0.0,1.21846967915e-07,0.0,0.0,0.0,1.21846967915e-07,-1.22606754303,0.445254981518,9.71516227722,0.00000009,0.0,0.0,0.0,0.00000009,0.0,0.0,0.0,0.00000009
3099710000000,1338,3099710000000,base_link,-0.156469330843,-0.13745754339,0.238681902096,-0.948500832984,1.0,0.0,0.0,0.0,1.0,0.0,0.0,0.0,1.0,0.0374836139381,-0.0255916789174,-0.763247609138,1.21846967915e-07,0.0,0.0,0.0,1.21846967915e-07,0.0,0.0,0.0,1.21846967915e-07,-1.30910229683,0.49185270071,9.65079307556,0.00000009,0.0,0.0,0.0,0.00000009,0.0,0.0,0.0,0.00000009
3099730000000,1339,3099730000000,base_link,-0.155331827573,-0.138568135897,0.247549514729,-0.946250528448,1.0,0.0,0.0,0.0,1.0,0.0,0.0,0.0,1.0,0.0221060160547,-0.0318861603737,-0.772771120071,1.21846967915e-07,0.0,0.0,0.0,1.21846967915e-07,0.0,0.0,0.0,1.21846967915e-07,-1.38569617271,0.499162197113,9.85757160187,0.00000009,0.0,0.0,0.0,0.00000009,0.0,0.0,0.0,0.00000009
3099750000000,1340,3099750000000,base_link,-0.15449545695,-0.139168673829,0.253408685315,-0.944747318949,1.0,0.0,0.0,0.0,1.0,0.0,0.0,0.0,1.0,0.0148185025901,-0.0540892928839,-0.766497969627,1.21846967915e-07,0.0,0.0,0.0,1.21846967915e-07,0.0,0.0,0.0,1.21846967915e-07,-1.45228850842,0.521051108837,9.90874385834,0.00000009,0.0,0.0,0.0,0.00000009,0.0,0.0,0.0,0.00000009
3099770000000,1341,3099770000000,base_link,-0.153115285955,-0.139947556809,0.26225212673,-0.942440516563,1.0,0.0,0.0,0.0,1.0,0.0,0.0,0.0,1.0,0.00797765143216,-0.0659524798393,-0.772696912289,1.21846967915e-07,0.0,0.0,0.0,1.21846967915e-07,0.0,0.0,0.0,1.21846967915e-07,-1.50159776211,0.526970624924,9.91959285736,0.00000009,0.0,0.0,0.0,0.00000009,0.0,0.0,0.0,0.00000009
3099790000000,1342,3099790000000,base_link,-0.151716558494,-0.140592572179,0.269608058348,-0.940493205721,1.0,0.0,0.0,0.0,1.0,0.0,0.0,0.0,1.0,-0.0131078707054,-0.0682852342725,-0.77413892746,1.21846967915e-07,0.0,0.0,0.0,1.21846967915e-07,0.0,0.0,0.0,1.21846967915e-07,-1.57202017307,0.556911051273,9.91567611694,0.00000009,0.0,0.0,0.0,0.00000009,0.0,0.0,0.0,0.00000009
3099810000000,1343,3099806000000,base_link,-0.150069575887,-0.141334978049,0.276879822709,-0.938531354217,1.0,0.0,0.0,0.0,1.0,0.0,0.0,0.0,1.0,-0.0423441901803,-0.0623872503638,-0.769390940666,1.21846967915e-07,0.0,0.0,0.0,1.21846967915e-07,0.0,0.0,0.0,1.21846967915e-07,-1.62974560261,0.627079069614,9.86990737915,0.00000009,0.0,0.0,0.0,0.00000009,0.0,0.0,0.0,0.00000009
3099830000000,1344,3099830000000,base_link,-0.148406670991,-0.142085761923,0.284130408278,-0.93651329989,1.0,0.0,0.0,0.0,1.0,0.0,0.0,0.0,1.0,-0.0421346351504,-0.0636023283005,-0.770055413246,1.21846967915e-07,0.0,0.0,0.0,1.21846967915e-07,0.0,0.0,0.0,1.21846967915e-07,-1.72392129898,0.608932077885,9.81509399414,0.00000009,0.0,0.0,0.0,0.00000009,0.0,0.0,0.0,0.00000009
3099850000000,1345,3099850000000,base_link,-0.147081911084,-0.142712127477,0.289932322371,-0.934847256042,1.0,0.0,0.0,0.0,1.0,0.0,0.0,0.0,1.0,-0.0390290021896,-0.0573060847819,-0.774517536163,1.21846967915e-07,0.0,0.0,0.0,1.21846967915e-07,0.0,0.0,0.0,1.21846967915e-07,-1.69180166721,0.525611639023,9.83318710327,0.00000009,0.0,0.0,0.0,0.00000009,0.0,0.0,0.0,0.00000009
3099870000000,1346,3099870000000,base_link,-0.145444449714,-0.143467392088,0.297133849009,-0.932724256062,1.0,0.0,0.0,0.0,1.0,0.0,0.0,0.0,1.0,-0.0415741316974,-0.0611960478127,-0.768357038498,1.21846967915e-07,0.0,0.0,0.0,1.21846967915e-07,0.0,0.0,0.0,1.21846967915e-07,-1.78788936138,0.542209267616,9.7032995224,0.00000009,0.0,0.0,0.0,0.00000009,0.0,0.0,0.0,0.00000009
3099890000000,1347,3099890000000,base_link,-0.14331355111,-0.144360795999,0.30578630198,-0.930116166929,1.0,0.0,0.0,0.0,1.0,0.0,0.0,0.0,1.0,-0.0542847923934,-0.0629431158304,-0.775448858738,1.21846967915e-07,0.0,0.0,0.0,1.21846967915e-07,0.0,0.0,0.0,1.21846967915e-07,-1.82527065277,0.554864227772,9.63690757751,0.00000009,0.0,0.0,0.0,0.00000009,0.0,0.0,0.0,0.00000009
3099910000000,1348,3099910000000,base_link,-0.141786377547,-0.144966133691,0.311450353731,-0.928375059544,1.0,0.0,0.0,0.0,1.0,0.0,0.0,0.0,1.0,-0.0664744824171,-0.0667118355632,-0.760773599148,1.21846967915e-07,0.0,0.0,0.0,1.21846967915e-07,0.0,0.0,0.0,1.21846967915e-07,-1.85005378723,0.560686469078,9.72341918945,0.00000009,0.0,0.0,0.0,0.00000009,0.0,0.0,0.0,0.00000009
3099930000000,1349,3099930000000,base_link,-0.139509429453,-0.145724467613,0.320043189986,-0.925674858474,1.0,0.0,0.0,0.0,1.0,0.0,0.0,0.0,1.0,-0.0545203909278,-0.0784011036158,-0.772771000862,1.21846967915e-07,0.0,0.0,0.0,1.21846967915e-07,0.0,0.0,0.0,1.21846967915e-07,-1.93523812294,0.649314105511,9.57490158081,0.00000009,0.0,0.0,0.0,0.00000009,0.0,0.0,0.0,0.00000009
3099950000000,1350,3099950000000,base_link,-0.137715966133,-0.14615420643,0.327193171028,-0.923373198003,1.0,0.0,0.0,0.0,1.0,0.0,0.0,0.0,1.0,-0.0385763905942,-0.0930127054453,-0.769099235535,1.21846967915e-07,0.0,0.0,0.0,1.21846967915e-07,0.0,0.0,0.0,1.21846967915e-07,-1.99391579628,0.610115706921,9.60160827637,0.00000009,0.0,0.0,0.0,0.00000009,0.0,0.0,0.0,0.00000009
3099970000000,1351,3099970000000,base_link,-0.135808802469,-0.146367698986,0.334298918952,-0.921073708095,1.0,0.0,0.0,0.0,1.0,0.0,0.0,0.0,1.0,-0.0452154651284,-0.118461117148,-0.763778805733,1.21846967915e-07,0.0,0.0,0.0,1.21846967915e-07,0.0,0.0,0.0,1.21846967915e-07,-1.90854167938,0.585434854031,9.60187339783,0.00000009,0.0,0.0,0.0,0.00000009,0.0,0.0,0.0,0.00000009
3099990000000,1352,3099990000000,base_link,-0.13418869243,-0.14639434205,0.339968344427,-0.919230036354,1.0,0.0,0.0,0.0,1.0,0.0,0.0,0.0,1.0,-0.0506980679929,-0.143417581916,-0.758906126022,1.21846967915e-07,0.0,0.0,0.0,1.21846967915e-07,0.0,0.0,0.0,1.21846967915e-07,-1.97212123871,0.629316806793,9.55343151093,0.00000009,0.0,0.0,0.0,0.00000009,0.0,0.0,0.0,0.00000009
3100006000000,1353,3100010000000,base_link,-0.132154784961,-0.146110699687,0.347085071605,-0.916907176019,1.0,0.0,0.0,0.0,1.0,0.0,0.0,0.0,1.0,-0.0304650142789,-0.174212411046,-0.760015547276,1.21846967915e-07,0.0,0.0,0.0,1.21846967915e-07,0.0,0.0,0.0,1.21846967915e-07,-2.06689548492,0.554042041302,9.55698871613,0.00000009,0.0,0.0,0.0,0.00000009,0.0,0.0,0.0,0.00000009
3100030000000,1354,3100030000000,base_link,-0.130203128384,-0.145424258575,0.354274607465,-0.914542779964,1.0,0.0,0.0,0.0,1.0,0.0,0.0,0.0,1.0,-0.0137294642627,-0.204261064529,-0.761718332767,1.21846967915e-07,0.0,0.0,0.0,1.21846967915e-07,0.0,0.0,0.0,1.21846967915e-07,-2.0737247467,0.580182731152,9.48062896729,0.00000009,0.0,0.0,0.0,0.00000009,0.0,0.0,0.0,0.00000009
3100050000000,1355,3100050000000,base_link,-0.127933028659,-0.144045537037,0.362872522414,-0.911705917738,1.0,0.0,0.0,0.0,1.0,0.0,0.0,0.0,1.0,0.00856913253665,-0.246023342013,-0.751425266266,1.21846967915e-07,0.0,0.0,0.0,1.21846967915e-07,0.0,0.0,0.0,1.21846967915e-07,-2.21686625481,0.564592421055,9.40267372131,0.00000009,0.0,0.0,0.0,0.00000009,0.0,0.0,0.0,0.00000009
3100070000000,1356,3100070000000,base_link,-0.126333048678,-0.142928499354,0.368633933386,-0.909791418217,1.0,0.0,0.0,0.0,1.0,0.0,0.0,0.0,1.0,0.00442886538804,-0.272951424122,-0.757120609283,1.21846967915e-07,0.0,0.0,0.0,1.21846967915e-07,0.0,0.0,0.0,1.21846967915e-07,-2.11044740677,0.523019731045,9.45407104492,0.00000009,0.0,0.0,0.0,0.00000009,0.0,0.0,0.0,0.00000009
3100090000000,1357,3100090000000,base_link,-0.124174050022,-0.141346354076,0.37580983474,-0.907396823946,1.0,0.0,0.0,0.0,1.0,0.0,0.0,0.0,1.0,-0.00715183280408,-0.293956518173,-0.749144852161,1.21846967915e-07,0.0,0.0,0.0,1.21846967915e-07,0.0,0.0,0.0,1.21846967915e-07,-2.25190877914,0.44671446085,9.45939064026,0.00000009,0.0,0.0,0.0,0.00000009,0.0,0.0,0.0,0.00000009
3100110000000,1358,3100110000000,base_link,-0.121442380402,-0.139211263878,0.384389521177,-0.904498026925,1.0,0.0,0.0,0.0,1.0,0.0,0.0,0.0,1.0,-0.00794338062406,-0.310895681381,-0.749553263187,1.21846967915e-07,0.0,0.0,0.0,1.21846967915e-07,0.0,0.0,0.0,1.21846967915e-07,-2.34124350548,0.518864452839,9.36187171936,0.00000009,0.0,0.0,0.0,0.00000009,0.0,0.0,0.0,0.00000009
3100130000000,1359,3100130000000,base_link,-0.119635174246,-0.137576990193,0.390111840946,-0.902536891917,1.0,0.0,0.0,0.0,1.0,0.0,0.0,0.0,1.0,0.0068156006746,-0.332920372486,-0.748946428299,1.21846967915e-07,0.0,0.0,0.0,1.21846967915e-07,0.0,0.0,0.0,1.21846967915e-07,-2.32788991928,0.494363099337,9.46762752533,0.00000009,0.0,0.0,0.0,0.00000009,0.0,0.0,0.0,0.00000009
3100150000000,1360,3100150000000,base_link,-0.116927248449,-0.134992220121,0.398671760512,-0.899536563139,1.0,0.0,0.0,0.0,1.0,0.0,0.0,0.0,1.0,0.0107776680961,-0.343281567097,-0.744995474815,1.21846967915e-07,0.0,0.0,0.0,1.21846967915e-07,0.0,0.0,0.0,1.21846967915e-07,-2.46895766258,0.557691693306,9.44141387939,0.00000009,0.0,0.0,0.0,0.00000009,0.0,0.0,0.0,0.00000009
3100170000000,1361,3100170000000,base_link,-0.115058995217,-0.133257571081,0.404321756289,-0.897512039271,1.0,0.0,0.0,0.0,1.0,0.0,0.0,0.0,1.0,0.00158218177967,-0.344922304153,-0.743565440178,1.21846967915e-07,0.0,0.0,0.0,1.21846967915e-07,0.0,0.0,0.0,1.21846967915e-07,-2.48869800568,0.412298619747,9.39935302734,0.00000009,0.0,0.0,0.0,0.00000009,0.0,0.0,0.0,0.00000009
3100186000000,1362,3100186000000,base_link,-0.112638985078,-0.131066399891,0.411315267156,-0.894960216181,1.0,0.0,0.0,0.0,1.0,0.0,0.0,0.0,1.0,-0.00558148697019,-0.349383741617,-0.738205552101,1.21846967915e-07,0.0,0.0,0.0,1.21846967915e-07,0.0,0.0,0.0,1.21846967915e-07,-2.48743057251,0.472864598036,9.40790271759,0.00000009,0.0,0.0,0.0,0.00000009,0.0,0.0,0.0,0.00000009
3100210000000,1363,3100210000000,base_link,-0.110190731283,-0.128765314989,0.418201809321,-0.892403925525,1.0,0.0,0.0,0.0,1.0,0.0,0.0,0.0,1.0,-0.00231355242431,-0.359540760517,-0.726851701736,1.21846967915e-07,0.0,0.0,0.0,1.21846967915e-07,0.0,0.0,0.0,1.21846967915e-07,-2.47044324875,0.346478134394,9.37241458893,0.00000009,0.0,0.0,0.0,0.00000009,0.0,0.0,0.0,0.00000009
3100230000000,1364,3100230000000,base_link,-0.107262884548,-0.12579498423,0.426212618671,-0.889389287892,1.0,0.0,0.0,0.0,1.0,0.0,0.0,0.0,1.0,0.00329492986202,-0.372674524784,-0.700668871403,1.21846967915e-07,0.0,0.0,0.0,1.21846967915e-07,0.0,0.0,0.0,1.21846967915e-07,-2.52532458305,0.430657327175,9.36630821228,0.00000009,0.0,0.0,0.0,0.00000009,0.0,0.0,0.0,0.00000009
3100250000000,1365,3100250000000,base_link,-0.105234889491,-0.12383123019,0.431412064638,-0.88739797574,1.0,0.0,0.0,0.0,1.0,0.0,0.0,0.0,1.0,-0.0127852074802,-0.371495902538,-0.687444031239,1.21846967915e-07,0.0,0.0,0.0,1.21846967915e-07,0.0,0.0,0.0,1.21846967915e-07,-2.60739994049,0.350647002459,9.36437988281,0.00000009,0.0,0.0,0.0,0.00000009,0.0,0.0,0.0,0.00000009
3100270000000,1366,3100270000000,base_link,-0.102112002287,-0.120944587926,0.439025850674,-0.884421776032,1.0,0.0,0.0,0.0,1.0,0.0,0.0,0.0,1.0,-0.0184909291565,-0.370374441147,-0.678846180439,1.21846967915e-07,0.0,0.0,0.0,1.21846967915e-07,0.0,0.0,0.0,1.21846967915e-07,-2.68181228638,0.426358520985,9.29396438599,0.00000009,0.0,0.0,0.0,0.00000009,0.0,0.0,0.0,0.00000009
3100290000000,1367,3100290000000,base_link,-0.100003912414,-0.119014103555,0.44390748833,-0.882485697326,1.0,0.0,0.0,0.0,1.0,0.0,0.0,0.0,1.0,-0.027971887961,-0.368553131819,-0.648585498333,1.21846967915e-07,0.0,0.0,0.0,1.21846967915e-07,0.0,0.0,0.0,1.21846967915e-07,-2.60358142853,0.34740883112,9.31711578369,0.00000009,0.0,0.0,0.0,0.00000009,0.0,0.0,0.0,0.00000009
3100310000000,1368,3100310000000,base_link,-0.0973793603269,-0.116629439476,0.44975530034,-0.880133544931,1.0,0.0,0.0,0.0,1.0,0.0,0.0,0.0,1.0,-0.0315133519471,-0.363499164581,-0.617762863636,1.21846967915e-07,0.0,0.0,0.0,1.21846967915e-07,0.0,0.0,0.0,1.21846967915e-07,-2.67807722092,0.309715896845,9.30102729797,0.00000009,0.0,0.0,0.0,0.00000009,0.0,0.0,0.0,0.00000009
3100330000000,1369,3100330000000,base_link,-0.0941765738933,-0.113769338531,0.4563577306,-0.877453721862,1.0,0.0,0.0,0.0,1.0,0.0,0.0,0.0,1.0,-0.0397256799042,-0.367747008801,-0.590301632881,1.21846967915e-07,0.0,0.0,0.0,1.21846967915e-07,0.0,0.0,0.0,1.21846967915e-07,-2.75653362274,0.370851010084,9.27592468262,0.00000009,0.0,0.0,0.0,0.00000009,0.0,0.0,0.0,0.00000009
3100350000000,1370,3100346000000,base_link,-0.091451313229,-0.111359111071,0.461550222336,-0.875332639564,1.0,0.0,0.0,0.0,1.0,0.0,0.0,0.0,1.0,-0.0482598915696,-0.369992375374,-0.560407817364,1.21846967915e-07,0.0,0.0,0.0,1.21846967915e-07,0.0,0.0,0.0,1.21846967915e-07,-2.72076249123,0.236784473062,9.26171684265,0.00000009,0.0,0.0,0.0,0.00000009,0.0,0.0,0.0,0.00000009
3100370000000,1371,3100370000000,base_link,-0.0886465326569,-0.109017656073,0.466458791828,-0.873311634957,1.0,0.0,0.0,0.0,1.0,0.0,0.0,0.0,1.0,-0.0633925721049,-0.364879727364,-0.534231126308,1.21846967915e-07,0.0,0.0,0.0,1.21846967915e-07,0.0,0.0,0.0,1.21846967915e-07,-2.76648831367,0.18936444819,9.3189239502,0.00000009,0.0,0.0,0.0,0.00000009,0.0,0.0,0.0,0.00000009
3100390000000,1372,3100390000000,base_link,-0.0858070869603,-0.106639638025,0.471122825305,-0.871383100536,1.0,0.0,0.0,0.0,1.0,0.0,0.0,0.0,1.0,-0.0665811598301,-0.369825780392,-0.507445693016,1.21846967915e-07,0.0,0.0,0.0,1.21846967915e-07,0.0,0.0,0.0,1.21846967915e-07,-2.71804523468,0.25139310956,9.32438468933,0.00000009,0.0,0.0,0.0,0.00000009,0.0,0.0,0.0,0.00000009
3100410000000,1373,3100410000000,base_link,-0.0836237267666,-0.104650333776,0.474636629138,-0.869928423134,1.0,0.0,0.0,0.0,1.0,0.0,0.0,0.0,1.0,-0.0508446060121,-0.374371886253,-0.47126570344,1.21846967915e-07,0.0,0.0,0.0,1.21846967915e-07,0.0,0.0,0.0,1.21846967915e-07,-2.73701000214,0.273343682289,9.32616424561,0.00000009,0.0,0.0,0.0,0.00000009,0.0,0.0,0.0,0.00000009
3100430000000,1374,3100426000000,base_link,-0.0809080169733,-0.102006629239,0.478753153979,-0.86824191699,1.0,0.0,0.0,0.0,1.0,0.0,0.0,0.0,1.0,-0.0543949306011,-0.387875318527,-0.434349268675,1.21846967915e-07,0.0,0.0,0.0,1.21846967915e-07,0.0,0.0,0.0,1.21846967915e-07,-2.80589771271,0.260627388954,9.2852640152,0.00000009,0.0,0.0,0.0,0.00000009,0.0,0.0,0.0,0.00000009
3100450000000,1375,3100450000000,base_link,-0.0775779510085,-0.0989009241198,0.483345369226,-0.866358816872,1.0,0.0,0.0,0.0,1.0,0.0,0.0,0.0,1.0,-0.0631582587957,-0.376913070679,-0.411373019218,1.21846967915e-07,0.0,0.0,0.0,1.21846967915e-07,0.0,0.0,0.0,1.21846967915e-07,-2.85047149658,0.22705052793,9.35185050964,0.00000009,0.0,0.0,0.0,0.00000009,0.0,0.0,0.0,0.00000009
3100470000000,1376,3100470000000,base_link,-0.0747432817353,-0.0965376331029,0.486767819765,-0.864957307719,1.0,0.0,0.0,0.0,1.0,0.0,0.0,0.0,1.0,-0.0861769393086,-0.358307480812,-0.373538136482,1.21846967915e-07,0.0,0.0,0.0,1.21846967915e-07,0.0,0.0,0.0,1.21846967915e-07,-2.81829810143,0.240049347281,9.4417257309,0.00000009,0.0,0.0,0.0,0.00000009,0.0,0.0,0.0,0.00000009
3100490000000,1377,3100486000000,base_link,-0.0719915179473,-0.094339955493,0.489770529841,-0.863737240748,1.0,0.0,0.0,0.0,1.0,0.0,0.0,0.0,1.0,-0.0902337133884,-0.339104831219,-0.325816303492,1.21846967915e-07,0.0,0.0,0.0,1.21846967915e-07,0.0,0.0,0.0,1.21846967915e-07,-2.8621776104,0.104357019067,9.44594669342,0.00000009,0.0,0.0,0.0,0.00000009,0.0,0.0,0.0,0.00000009
3100510000000,1378,3100506000000,base_link,-0.0699775215716,-0.0927625767603,0.491917237423,-0.862853252747,1.0,0.0,0.0,0.0,1.0,0.0,0.0,0.0,1.0,-0.0827981829643,-0.308770447969,-0.297546863556,1.21846967915e-07,0.0,0.0,0.0,1.21846967915e-07,0.0,0.0,0.0,1.21846967915e-07,-2.94734764099,0.153346687555,9.46937847137,0.00000009,0.0,0.0,0.0,0.00000009,0.0,0.0,0.0,0.00000009
3100530000000,1379,3100530000000,base_link,-0.0676784202049,-0.0911667403421,0.494224103029,-0.861888005623,1.0,0.0,0.0,0.0,1.0,0.0,0.0,0.0,1.0,-0.0918151289225,-0.24928060174,-0.243287533522,1.21846967915e-07,0.0,0.0,0.0,1.21846967915e-07,0.0,0.0,0.0,1.21846967915e-07,-2.90029168129,0.20045247674,9.4720697403,0.00000009,0.0,0.0,0.0,0.00000009,0.0,0.0,0.0,0.00000009
3100550000000,1380,3100550000000,base_link,-0.0656020807377,-0.0901482683332,0.496051316426,-0.861105612601,1.0,0.0,0.0,0.0,1.0,0.0,0.0,0.0,1.0,-0.110933728516,-0.178608283401,-0.198093816638,1.21846967915e-07,0.0,0.0,0.0,1.21846967915e-07,0.0,0.0,0.0,1.21846967915e-07,-2.90514683723,0.217231228948,9.49297809601,0.00000009,0.0,0.0,0.0,0.00000009,0.0,0.0,0.0,0.00000009
3100570000000,1381,3100570000000,base_link,-0.0637360935573,-0.0897665746193,0.497458410037,-0.860473683827,1.0,0.0,0.0,0.0,1.0,0.0,0.0,0.0,1.0,-0.124421522021,-0.126963198185,-0.163985952735,1.21846967915e-07,0.0,0.0,0.0,1.21846967915e-07,0.0,0.0,0.0,1.21846967915e-07,-2.99700140953,0.13597612083,9.37253093719,0.00000009,0.0,0.0,0.0,0.00000009,0.0,0.0,0.0,0.00000009
3100590000000,1382,3100590000000,base_link,-0.062219341749,-0.0897672305296,0.49848727783,-0.859989016143,1.0,0.0,0.0,0.0,1.0,0.0,0.0,0.0,1.0,-0.10938437283,-0.0737631991506,-0.113841153681,1.21846967915e-07,0.0,0.0,0.0,1.21846967915e-07,0.0,0.0,0.0,1.21846967915e-07,-2.94984865189,0.131585344672,9.43693065643,0.00000009,0.0,0.0,0.0,0.00000009,0.0,0.0,0.0,0.00000009
3100610000000,1383,3100610000000,base_link,-0.0609067018598,-0.0901364975087,0.499223035364,-0.85961740738,1.0,0.0,0.0,0.0,1.0,0.0,0.0,0.0,1.0,-0.097144305706,-0.023071795702,-0.073857806623,1.21846967915e-07,0.0,0.0,0.0,1.21846967915e-07,0.0,0.0,0.0,1.21846967915e-07,-2.96370697021,0.258250653744,9.41997146606,0.00000009,0.0,0.0,0.0,0.00000009,0.0,0.0,0.0,0.00000009
3100630000000,1384,3100630000000,base_link,-0.0601569713279,-0.0911050017944,0.499394846992,-0.85946835505,1.0,0.0,0.0,0.0,1.0,0.0,0.0,0.0,1.0,-0.109595999122,0.0484944134951,-0.0319834202528,1.21846967915e-07,0.0,0.0,0.0,1.21846967915e-07,0.0,0.0,0.0,1.21846967915e-07,-2.98090028763,0.100060127676,9.45083713531,0.00000009,0.0,0.0,0.0,0.00000009,0.0,0.0,0.0,0.00000009
3100650000000,1385,3100650000000,base_link,-0.0597326065641,-0.0923099578028,0.499248744942,-0.859454214782,1.0,0.0,0.0,0.0,1.0,0.0,0.0,0.0,1.0,-0.120170779526,0.0989344120026,-0.000396256684326,1.21846967915e-07,0.0,0.0,0.0,1.21846967915e-07,0.0,0.0,0.0,1.21846967915e-07,-2.94626164436,0.189363628626,9.40858650208,0.00000009,0.0,0.0,0.0,0.00000009,0.0,0.0,0.0,0.00000009
3100670000000,1386,3100670000000,base_link,-0.0592928674201,-0.0943738046807,0.498750758853,-0.859549698467,1.0,0.0,0.0,0.0,1.0,0.0,0.0,0.0,1.0,-0.146370440722,0.158072948456,0.0340619012713,1.21846967915e-07,0.0,0.0,0.0,1.21846967915e-07,0.0,0.0,0.0,1.21846967915e-07,-2.86371922493,0.132253348827,9.44145679474,0.00000009,0.0,0.0,0.0,0.00000009,0.0,0.0,0.0,0.00000009
3100690000000,1387,3100690000000,base_link,-0.0590699566896,-0.0968969534257,0.497931529485,-0.859759315819,1.0,0.0,0.0,0.0,1.0,0.0,0.0,0.0,1.0,-0.152146577835,0.205976605415,0.0668062642217,1.21846967915e-07,0.0,0.0,0.0,1.21846967915e-07,0.0,0.0,0.0,1.21846967915e-07,-2.87269735336,0.176344245672,9.42670631409,0.00000009,0.0,0.0,0.0,0.00000009,0.0,0.0,0.0,0.00000009
3100710000000,1388,3100710000000,base_link,-0.059119942852,-0.100283947929,0.496512192215,-0.860188117855,1.0,0.0,0.0,0.0,1.0,0.0,0.0,0.0,1.0,-0.147680595517,0.248087465763,0.109560504556,1.21846967915e-07,0.0,0.0,0.0,1.21846967915e-07,0.0,0.0,0.0,1.21846967915e-07,-2.85983395576,0.120101600885,9.46740245819,0.00000009,0.0,0.0,0.0,0.00000009,0.0,0.0,0.0,0.00000009
3100730000000,1389,3100730000000,base_link,-0.0591860106712,-0.103554488056,0.494931200707,-0.860707008781,1.0,0.0,0.0,0.0,1.0,0.0,0.0,0.0,1.0,-0.169616729021,0.278282523155,0.139296770096,1.21846967915e-07,0.0,0.0,0.0,1.21846967915e-07,0.0,0.0,0.0,1.21846967915e-07,-2.94428443909,0.185216277838,9.41840934753,0.00000009,0.0,0.0,0.0,0.00000009,0.0,0.0,0.0,0.00000009
3100750000000,1390,3100750000000,base_link,-0.0591765934847,-0.106567005176,0.493451361635,-0.861189569123,1.0,0.0,0.0,0.0,1.0,0.0,0.0,0.0,1.0,-0.217422783375,0.329074442387,0.173081040382,1.21846967915e-07,0.0,0.0,0.0,1.21846967915e-07,0.0,0.0,0.0,1.21846967915e-07,-2.87165522575,0.130482777953,9.47458076477,0.00000009,0.0,0.0,0.0,0.00000009,0.0,0.0,0.0,0.00000009
3100770000000,1391,3100770000000,base_link,-0.0589706771538,-0.111492030378,0.490822978795,-0.862081754685,1.0,0.0,0.0,0.0,1.0,0.0,0.0,0.0,1.0,-0.249288365245,0.346232682467,0.203840434551,1.21846967915e-07,0.0,0.0,0.0,1.21846967915e-07,0.0,0.0,0.0,1.21846967915e-07,-2.80161738396,0.144299015403,9.37994384766,0.00000009,0.0,0.0,0.0,0.00000009,0.0,0.0,0.0,0.00000009
3100786000000,1392,3100786000000,base_link,-0.0587774944395,-0.114904831923,0.48882001304,-0.862784574458,1.0,0.0,0.0,0.0,1.0,0.0,0.0,0.0,1.0,-0.26240503788,0.354245394468,0.229362979531,1.21846967915e-07,0.0,0.0,0.0,1.21846967915e-07,0.0,0.0,0.0,1.21846967915e-07,-2.83868265152,0.187240108848,9.45547676086,0.00000009,0.0,0.0,0.0,0.00000009,0.0,0.0,0.0,0.00000009
3100810000000,1393,3100810000000,base_link,-0.0584042682908,-0.120071787938,0.485488726133,-0.86398643399,1.0,0.0,0.0,0.0,1.0,0.0,0.0,0.0,1.0,-0.277951657772,0.354504436255,0.264375865459,1.21846967915e-07,0.0,0.0,0.0,1.21846967915e-07,0.0,0.0,0.0,1.21846967915e-07,-2.72088551521,0.259897738695,9.45131587982,0.00000009,0.0,0.0,0.0,0.00000009,0.0,0.0,0.0,0.00000009
3100830000000,1394,3100830000000,base_link,-0.0578170678607,-0.12450381355,0.482477607762,-0.865084591201,1.0,0.0,0.0,0.0,1.0,0.0,0.0,0.0,1.0,-0.312965482473,0.351139634848,0.280434310436,1.21846967915e-07,0.0,0.0,0.0,1.21846967915e-07,0.0,0.0,0.0,1.21846967915e-07,-2.74875259399,0.2283090204,9.42531394958,0.00000009,0.0,0.0,0.0,0.00000009,0.0,0.0,0.0,0.00000009
3100850000000,1395,3100850000000,base_link,-0.0571468381389,-0.128129274922,0.479866547276,-0.86605158742,1.0,0.0,0.0,0.0,1.0,0.0,0.0,0.0,1.0,-0.33869060874,0.347670465708,0.302970081568,1.21846967915e-07,0.0,0.0,0.0,1.21846967915e-07,0.0,0.0,0.0,1.21846967915e-07,-2.66112971306,0.175928354263,9.40885257721,0.00000009,0.0,0.0,0.0,0.00000009,0.0,0.0,0.0,0.00000009
3100870000000,1396,3100870000000,base_link,-0.0561539558526,-0.132720402253,0.476346611076,-0.867367243443,1.0,0.0,0.0,0.0,1.0,0.0,0.0,0.0,1.0,-0.362709075212,0.346183001995,0.337733834982,1.21846967915e-07,0.0,0.0,0.0,1.21846967915e-07,0.0,0.0,0.0,1.21846967915e-07,-2.75864124298,0.360652804375,9.49944782257,0.00000009,0.0,0.0,0.0,0.00000009,0.0,0.0,0.0,0.00000009
3100890000000,1397,3100890000000,base_link,-0.0550429385841,-0.137321262872,0.472587091115,-0.868777666655,1.0,0.0,0.0,0.0,1.0,0.0,0.0,0.0,1.0,-0.378737330437,0.337158441544,0.357835143805,1.21846967915e-07,0.0,0.0,0.0,1.21846967915e-07,0.0,0.0,0.0,1.21846967915e-07,-2.7390871048,0.301402777433,9.38813686371,0.00000009,0.0,0.0,0.0,0.00000009,0.0,0.0,0.0,0.00000009
3100910000000,1398,3100910000000,base_link,-0.0534613175076,-0.142835796044,0.467791327664,-0.870581003862,1.0,0.0,0.0,0.0,1.0,0.0,0.0,0.0,1.0,-0.394457876682,0.329440176487,0.380217462778,1.21846967915e-07,0.0,0.0,0.0,1.21846967915e-07,0.0,0.0,0.0,1.21846967915e-07,-2.73320555687,0.288551449776,9.38982582092,0.00000009,0.0,0.0,0.0,0.00000009,0.0,0.0,0.0,0.00000009
3100930000000,1399,3100930000000,base_link,-0.0522030233453,-0.146614787849,0.4644002976,-0.871843618077,1.0,0.0,0.0,0.0,1.0,0.0,0.0,0.0,1.0,-0.426989257336,0.330251157284,0.395125389099,1.21846967915e-07,0.0,0.0,0.0,1.21846967915e-07,0.0,0.0,0.0,1.21846967915e-07,-2.67047905922,0.283820331097,9.39613246918,0.00000009,0.0,0.0,0.0,0.00000009,0.0,0.0,0.0,0.00000009
3100950000000,1400,3100950000000,base_link,-0.0504423808956,-0.151498870021,0.45995249853,-0.873468674115,1.0,0.0,0.0,0.0,1.0,0.0,0.0,0.0,1.0,-0.460424780846,0.339485496283,0.412157535553,1.21846967915e-07,0.0,0.0,0.0,1.21846967915e-07,0.0,0.0,0.0,1.21846967915e-07,-2.71847438812,0.378245055676,9.48066234589,0.00000009,0.0,0.0,0.0,0.00000009,0.0,0.0,0.0,0.00000009
3100970000000,1401,3100970000000,base_link,-0.0486558339392,-0.156478651882,0.455322035018,-0.875116573745,1.0,0.0,0.0,0.0,1.0,0.0,0.0,0.0,1.0,-0.463654369116,0.342518121004,0.429974526167,1.21846967915e-07,0.0,0.0,0.0,1.21846967915e-07,0.0,0.0,0.0,1.21846967915e-07,-2.69441962242,0.336459457874,9.51640892029,0.00000009,0.0,0.0,0.0,0.00000009,0.0,0.0,0.0,0.00000009
3100990000000,1402,3100990000000,base_link,-0.0467944394481,-0.161470566766,0.450456497459,-0.87682758828,1.0,0.0,0.0,0.0,1.0,0.0,0.0,0.0,1.0,-0.478278040886,0.339651614428,0.453347921371,1.21846967915e-07,0.0,0.0,0.0,1.21846967915e-07,0.0,0.0,0.0,1.21846967915e-07,-2.72581076622,0.362117916346,9.45667743683,0.00000009,0.0,0.0,0.0,0.00000009,0.0,0.0,0.0,0.00000009
3101010000000,1403,3101010000000,base_link,-0.0447966314135,-0.166394251171,0.445403448571,-0.878590991349,1.0,0.0,0.0,0.0,1.0,0.0,0.0,0.0,1.0,-0.487653076649,0.324792802334,0.468776762486,1.21846967915e-07,0.0,0.0,0.0,1.21846967915e-07,0.0,0.0,0.0,1.21846967915e-07,-2.74213933945,0.392153799534,9.52561664581,0.00000009,0.0,0.0,0.0,0.00000009,0.0,0.0,0.0,0.00000009
3101030000000,1404,3101030000000,base_link,-0.0422941359414,-0.172064735585,0.439108437424,-0.880788738764,1.0,0.0,0.0,0.0,1.0,0.0,0.0,0.0,1.0,-0.486516386271,0.30089533329,0.487418889999,1.21846967915e-07,0.0,0.0,0.0,1.21846967915e-07,0.0,0.0,0.0,1.21846967915e-07,-2.78658008575,0.353345513344,9.54022312164,0.00000009,0.0,0.0,0.0,0.00000009,0.0,0.0,0.0,0.00000009
3101050000000,1405,3101050000000,base_link,-0.0400869002165,-0.176520526751,0.433707972063,-0.882683935028,1.0,0.0,0.0,0.0,1.0,0.0,0.0,0.0,1.0,-0.490133345127,0.274816155434,0.503998756409,1.21846967915e-07,0.0,0.0,0.0,1.21846967915e-07,0.0,0.0,0.0,1.21846967915e-07,-2.76769089699,0.424537360668,9.50390052795,0.00000009,0.0,0.0,0.0,0.00000009,0.0,0.0,0.0,0.00000009
3101070000000,1406,3101066000000,base_link,-0.0382131672355,-0.17998595654,0.429242197362,-0.88424882644,1.0,0.0,0.0,0.0,1.0,0.0,0.0,0.0,1.0,-0.500473737717,0.259831726551,0.518375873566,1.21846967915e-07,0.0,0.0,0.0,1.21846967915e-07,0.0,0.0,0.0,1.21846967915e-07,-2.73842406273,0.442119628191,9.40220451355,0.00000009,0.0,0.0,0.0,0.00000009,0.0,0.0,0.0,0.00000009
3101090000000,1407,3101090000000,base_link,-0.0354145111273,-0.185151368926,0.422377255457,-0.886601611037,1.0,0.0,0.0,0.0,1.0,0.0,0.0,0.0,1.0,-0.499090850353,0.260600805283,0.534634888172,1.21846967915e-07,0.0,0.0,0.0,1.21846967915e-07,0.0,0.0,0.0,1.21846967915e-07,-2.7990295887,0.419352769852,9.55285263062,0.00000009,0.0,0.0,0.0,0.00000009,0.0,0.0,0.0,0.00000009
3101110000000,1408,3101110000000,base_link,-0.0337219463747,-0.188474047339,0.417698028041,-0.8881828765,1.0,0.0,0.0,0.0,1.0,0.0,0.0,0.0,1.0,-0.476144164801,0.255494713783,0.54747313261,1.21846967915e-07,0.0,0.0,0.0,1.21846967915e-07,0.0,0.0,0.0,1.21846967915e-07,-2.79078245163,0.493903458118,9.50100708008,0.00000009,0.0,0.0,0.0,0.00000009,0.0,0.0,0.0,0.00000009
3101130000000,1409,3101130000000,base_link,-0.0314966454568,-0.193074871079,0.410490853726,-0.890633104611,1.0,0.0,0.0,0.0,1.0,0.0,0.0,0.0,1.0,-0.443196743727,0.233655065298,0.57254165411,1.21846967915e-07,0.0,0.0,0.0,1.21846967915e-07,0.0,0.0,0.0,1.21846967915e-07,-2.65599679947,0.473643541336,9.53786945343,0.00000009,0.0,0.0,0.0,0.00000009,0.0,0.0,0.0,0.00000009
3101150000000,1410,3101150000000,base_link,-0.0296778298195,-0.196782202705,0.404383986111,-0.892675583037,1.0,0.0,0.0,0.0,1.0,0.0,0.0,0.0,1.0,-0.438575923443,0.224009200931,0.580612778664,1.21846967915e-07,0.0,0.0,0.0,1.21846967915e-07,0.0,0.0,0.0,1.21846967915e-07,-2.78471684456,0.548747718334,9.48794937134,0.00000009,0.0,0.0,0.0,0.00000009,0.0,0.0,0.0,0.00000009
3101170000000,1411,3101170000000,base_link,-0.0281454336279,-0.1996535832,0.399418792328,-0.894321543912,1.0,0.0,0.0,0.0,1.0,0.0,0.0,0.0,1.0,-0.446829229593,0.210552811623,0.588420271873,1.21846967915e-07,0.0,0.0,0.0,1.21846967915e-07,0.0,0.0,0.0,1.21846967915e-07,-2.75559639931,0.571040213108,9.59822177887,0.00000009,0.0,0.0,0.0,0.00000009,0.0,0.0,0.0,0.00000009
3101190000000,1412,3101190000000,base_link,-0.0262742294579,-0.203124407785,0.393148310647,-0.896373126057,1.0,0.0,0.0,0.0,1.0,0.0,0.0,0.0,1.0,-0.433708041906,0.201763749123,0.599271774292,1.21846967915e-07,0.0,0.0,0.0,1.21846967915e-07,0.0,0.0,0.0,1.21846967915e-07,-2.76514053345,0.662864327431,9.51393413544,0.00000009,0.0,0.0,0.0,0.00000009,0.0,0.0,0.0,0.00000009
3101210000000,1413,3101210000000,base_link,-0.0243319446278,-0.206790098324,0.385497730412,-0.898908933344,1.0,0.0,0.0,0.0,1.0,0.0,0.0,0.0,1.0,-0.392151772976,0.167086720467,0.616170763969,1.21846967915e-07,0.0,0.0,0.0,1.21846967915e-07,0.0,0.0,0.0,1.21846967915e-07,-2.81291651726,0.600706338882,9.52095794678,0.00000009,0.0,0.0,0.0,0.00000009,0.0,0.0,0.0,0.00000009
3101230000000,1414,3101230000000,base_link,-0.0231079369268,-0.208950503632,0.380350778345,-0.900632549788,1.0,0.0,0.0,0.0,1.0,0.0,0.0,0.0,1.0,-0.376633822918,0.141031503677,0.625458180904,1.21846967915e-07,0.0,0.0,0.0,1.21846967915e-07,0.0,0.0,0.0,1.21846967915e-07,-2.76793599129,0.566480755806,9.45636749268,0.00000009,0.0,0.0,0.0,0.00000009,0.0,0.0,0.0,0.00000009
3101250000000,1415,3101250000000,base_link,-0.0215756671757,-0.211511367221,0.373837404376,-0.902797380515,1.0,0.0,0.0,0.0,1.0,0.0,0.0,0.0,1.0,-0.375674575567,0.13259986043,0.630350708961,1.21846967915e-07,0.0,0.0,0.0,1.21846967915e-07,0.0,0.0,0.0,1.21846967915e-07,-2.82891154289,0.608564257622,9.4844493866,0.00000009,0.0,0.0,0.0,0.00000009,0.0,0.0,0.0,0.00000009
3101270000000,1416,3101266000000,base_link,-0.0199564695496,-0.213959319403,0.367226060058,-0.904968554342,1.0,0.0,0.0,0.0,1.0,0.0,0.0,0.0,1.0,-0.382365703583,0.116169586778,0.638274848461,1.21846967915e-07,0.0,0.0,0.0,1.21846967915e-07,0.0,0.0,0.0,1.21846967915e-07,-2.81443500519,0.564661443233,9.47776889801,0.00000009,0.0,0.0,0.0,0.00000009,0.0,0.0,0.0,0.00000009
3101290000000,1417,3101290000000,base_link,-0.01803360388,-0.216754182294,0.359186590851,-0.907566696819,1.0,0.0,0.0,0.0,1.0,0.0,0.0,0.0,1.0,-0.37575724721,0.108661599457,0.646186649799,1.21846967915e-07,0.0,0.0,0.0,1.21846967915e-07,0.0,0.0,0.0,1.21846967915e-07,-2.79184031487,0.596264064312,9.57147026062,0.00000009,0.0,0.0,0.0,0.00000009,0.0,0.0,0.0,0.00000009
3101310000000,1418,3101306000000,base_link,-0.0168768836226,-0.218410595588,0.353790740571,-0.909309764033,1.0,0.0,0.0,0.0,1.0,0.0,0.0,0.0,1.0,-0.354638397694,0.093173570931,0.656515300274,1.21846967915e-07,0.0,0.0,0.0,1.21846967915e-07,0.0,0.0,0.0,1.21846967915e-07,-2.75984454155,0.584345281124,9.49462413788,0.00000009,0.0,0.0,0.0,0.00000009,0.0,0.0,0.0,0.00000009
3101330000000,1419,3101330000000,base_link,-0.0155749780089,-0.220287236701,0.347077969861,-0.911464605956,1.0,0.0,0.0,0.0,1.0,0.0,0.0,0.0,1.0,-0.331911802292,0.0768655687571,0.655315816402,1.21846967915e-07,0.0,0.0,0.0,1.21846967915e-07,0.0,0.0,0.0,1.21846967915e-07,-2.82939314842,0.59497988224,9.50213909149,0.00000009,0.0,0.0,0.0,0.00000009,0.0,0.0,0.0,0.00000009
