%time,field.header.seq,field.header.stamp,field.header.frame_id,field.orientation.x,field.orientation.y,field.orientation.z,field.orientation.w,field.orientation_covariance0,field.orientation_covariance1,field.orientation_covariance2,field.orientation_covariance3,field.orientation_covariance4,field.orientation_covariance5,field.orientation_covariance6,field.orientation_covariance7,field.orientation_covariance8,field.angular_velocity.x,field.angular_velocity.y,field.angular_velocity.z,field.angular_velocity_covariance0,field.angular_velocity_covariance1,field.angular_velocity_covariance2,field.angular_velocity_covariance3,field.angular_velocity_covariance4,field.angular_velocity_covariance5,field.angular_velocity_covariance6,field.angular_velocity_covariance7,field.angular_velocity_covariance8,field.linear_acceleration.x,field.linear_acceleration.y,field.linear_acceleration.z,field.linear_acceleration_covariance0,field.linear_acceleration_covariance1,field.linear_acceleration_covariance2,field.linear_acceleration_covariance3,field.linear_acceleration_covariance4,field.linear_acceleration_covariance5,field.linear_acceleration_covariance6,field.linear_acceleration_covariance7,field.linear_acceleration_covariance8
2767642000000,1776,2767630000000,base_link,0.00910684835258,-0.0117474741938,0.0192522167844,-0.99970423845,1.0,0.0,0.0,0.0,1.0,0.0,0.0,0.0,1.0,0.00301155098714,-0.0029262881726,0.000683334539644,1.21846967915e-07,0.0,0.0,0.0,1.21846967915e-07,0.0,0.0,0.0,1.21846967915e-07,-0.185976192355,-0.234902068973,9.79442596436,9e-08,0.0,0.0,0.0,9e-08,0.0,0.0,0.0,9e-08
2767650000000,1777,2767650000000,base_link,0.00910318618657,-0.0117835960186,0.0192703399293,-0.999703479806,1.0,0.0,0.0,0.0,1.0,0.0,0.0,0.0,1.0,0.00148599781096,-0.00127132097259,0.00017201868468,1.21846967915e-07,0.0,0.0,0.0,1.21846967915e-07,0.0,0.0,0.0,1.21846967915e-07,-0.197190403938,-0.0984008163214,9.75459957123,9e-08,0.0,0.0,0.0,9e-08,0.0,0.0,0.0,9e-08
2767670000000,1778,2767670000000,base_link,0.00911228661313,-0.0118035650637,0.019267642531,-0.999703226925,1.0,0.0,0.0,0.0,1.0,0.0,0.0,0.0,1.0,0.000365008425433,-0.00308566633612,0.00314904679544,1.21846967915e-07,0.0,0.0,0.0,1.21846967915e-07,0.0,0.0,0.0,1.21846967915e-07,-0.262243211269,-0.136259108782,9.82148456573,9e-08,0.0,0.0,0.0,9e-08,0.0,0.0,0.0,9e-08
2767690000000,1779,2767690000000,base_link,0.00911725047468,-0.0118097055797,0.0192603932731,-0.999703226925,1.0,0.0,0.0,0.0,1.0,0.0,0.0,0.0,1.0,-4.92291292176e-05,-0.00510538229719,0.00301376613788,1.21846967915e-07,0.0,0.0,0.0,1.21846967915e-07,0.0,0.0,0.0,1.21846967915e-07,-0.221307560802,-0.142046868801,9.74651622772,9e-08,0.0,0.0,0.0,9e-08,0.0,0.0,0.0,9e-08
2767710000000,1780,2767710000000,base_link,0.00911375549665,-0.0118269246252,0.0193074713028,-0.99970208896,1.0,0.0,0.0,0.0,1.0,0.0,0.0,0.0,1.0,0.00162127392832,3.48663888867e-08,-0.00376574229449,1.21846967915e-07,0.0,0.0,0.0,1.21846967915e-07,0.0,0.0,0.0,1.21846967915e-07,-0.20246309042,-0.189760565758,9.69304561615,9e-08,0.0,0.0,0.0,9e-08,0.0,0.0,0.0,9e-08
2767730000000,1781,2767730000000,base_link,0.0091124783319,-0.0118520252961,0.0193053218136,-0.999701878226,1.0,0.0,0.0,0.0,1.0,0.0,0.0,0.0,1.0,0.00459859147668,-0.00523658655584,0.00273920362815,1.21846967915e-07,0.0,0.0,0.0,1.21846967915e-07,0.0,0.0,0.0,1.21846967915e-07,-0.245744973421,-0.227499365807,9.73949146271,9e-08,0.0,0.0,0.0,9e-08,0.0,0.0,0.0,9e-08
2767750000000,1782,2767750000000,base_link,0.00909476200291,-0.0118514130143,0.0193375220058,-0.999701456758,1.0,0.0,0.0,0.0,1.0,0.0,0.0,0.0,1.0,-0.00109034636989,-0.00581504777074,-5.05415373482e-05,1.21846967915e-07,0.0,0.0,0.0,1.21846967915e-07,0.0,0.0,0.0,1.21846967915e-07,-0.228066131473,-0.218817934394,9.77425289154,9e-08,0.0,0.0,0.0,9e-08,0.0,0.0,0.0,9e-08
2767770000000,1783,2767770000000,base_link,0.00907989840641,-0.0118980579688,0.0193379856212,-0.999700993142,1.0,0.0,0.0,0.0,1.0,0.0,0.0,0.0,1.0,0.00378335383721,-0.00210282672197,0.000705796759576,1.21846967915e-07,0.0,0.0,0.0,1.21846967915e-07,0.0,0.0,0.0,1.21846967915e-07,-0.24267937243,-0.198437780142,9.71459770203,9e-08,0.0,0.0,0.0,9e-08,0.0,0.0,0.0,9e-08
2767790000000,1784,2767790000000,base_link,0.00907368948415,-0.0119143505246,0.01929212985,-0.999701751786,1.0,0.0,0.0,0.0,1.0,0.0,0.0,0.0,1.0,0.00358264800161,-0.00412504700944,0.00322735006921,1.21846967915e-07,0.0,0.0,0.0,1.21846967915e-07,0.0,0.0,0.0,1.21846967915e-07,-0.28877428174,-0.113873369992,9.84472465515,9e-08,0.0,0.0,0.0,9e-08,0.0,0.0,0.0,9e-08
2767810000000,1785,2767810000000,base_link,0.00907127657708,-0.0119324539131,0.0192919191157,-0.999701541051,1.0,0.0,0.0,0.0,1.0,0.0,0.0,0.0,1.0,0.000739364826586,-0.00401337631047,-0.000956994714215,1.21846967915e-07,0.0,0.0,0.0,1.21846967915e-07,0.0,0.0,0.0,1.21846967915e-07,-0.245046392083,-0.173651188612,9.74847507477,9e-08,0.0,0.0,0.0,9e-08,0.0,0.0,0.0,9e-08
2767830000000,1786,2767826000000,base_link,0.00904415557397,-0.0119010408462,0.0193095786453,-0.999701836079,1.0,0.0,0.0,0.0,1.0,0.0,0.0,0.0,1.0,0.00555826164782,-0.0105945188552,-0.00132237025537,1.21846967915e-07,0.0,0.0,0.0,1.21846967915e-07,0.0,0.0,0.0,1.21846967915e-07,-0.299197793007,-0.17023037374,9.76046848297,9e-08,0.0,0.0,0.0,9e-08,0.0,0.0,0.0,9e-08
2767850000000,1787,2767850000000,base_link,0.0090752815155,-0.011899868143,0.0193273646153,-0.999701246023,1.0,0.0,0.0,0.0,1.0,0.0,0.0,0.0,1.0,-0.00323079572991,-0.00599204283208,-0.00107277953066,1.21846967915e-07,0.0,0.0,0.0,1.21846967915e-07,0.0,0.0,0.0,1.21846967915e-07,-0.2369530797,-0.20899823308,9.83499717712,9e-08,0.0,0.0,0.0,9e-08,0.0,0.0,0.0,9e-08
2767870000000,1788,2767870000000,base_link,0.00905739906866,-0.0119325941831,0.0193558558849,-0.999700403087,1.0,0.0,0.0,0.0,1.0,0.0,0.0,0.0,1.0,0.00286174658686,-0.00219520949759,-0.00154431175906,1.21846967915e-07,0.0,0.0,0.0,1.21846967915e-07,0.0,0.0,0.0,1.21846967915e-07,-0.252506822348,-0.113099858165,9.76692676544,9e-08,0.0,0.0,0.0,9e-08,0.0,0.0,0.0,9e-08
2767890000000,1789,2767890000000,base_link,0.00905634786699,-0.0119215097265,0.0193956003631,-0.999699855177,1.0,0.0,0.0,0.0,1.0,0.0,0.0,0.0,1.0,0.00107488012873,-0.00862702075392,-0.00318437162787,1.21846967915e-07,0.0,0.0,0.0,1.21846967915e-07,0.0,0.0,0.0,1.21846967915e-07,-0.211083933711,-0.167527064681,9.79461860657,9e-08,0.0,0.0,0.0,9e-08,0.0,0.0,0.0,9e-08
2767910000000,1790,2767910000000,base_link,0.0090500212299,-0.0119044975463,0.0194154515287,-0.999699644443,1.0,0.0,0.0,0.0,1.0,0.0,0.0,0.0,1.0,0.00228358479217,-0.00920514576137,0.00167477852665,1.21846967915e-07,0.0,0.0,0.0,1.21846967915e-07,0.0,0.0,0.0,1.21846967915e-07,-0.264016330242,-0.233787536621,9.73109531403,9e-08,0.0,0.0,0.0,9e-08,0.0,0.0,0.0,9e-08
2767930000000,1791,2767930000000,base_link,0.00902592228754,-0.0119245121956,0.01943736789,-0.999699222975,1.0,0.0,0.0,0.0,1.0,0.0,0.0,0.0,1.0,0.00346070807427,-0.00247433874756,-0.000941432313994,1.21846967915e-07,0.0,0.0,0.0,1.21846967915e-07,0.0,0.0,0.0,1.21846967915e-07,-0.231055930257,-0.193897455931,9.76771354675,9e-08,0.0,0.0,0.0,9e-08,0.0,0.0,0.0,9e-08
2767950000000,1792,2767950000000,base_link,0.0092661062289,-0.0119275168872,0.0193910485034,-0.999697916422,1.0,0.0,0.0,0.0,1.0,0.0,0.0,0.0,1.0,-0.029849531129,-0.00667301611975,0.00730270752683,1.21846967915e-07,0.0,0.0,0.0,1.21846967915e-07,0.0,0.0,0.0,1.21846967915e-07,-0.201466009021,-0.246300190687,9.78100585938,9e-08,0.0,0.0,0.0,9e-08,0.0,0.0,0.0,9e-08
2767970000000,1793,2767970000000,base_link,0.0103589807609,-0.0120791215709,0.0189768292763,-0.999693280269,1.0,0.0,0.0,0.0,1.0,0.0,0.0,0.0,1.0,-0.123054966331,0.0099568227306,0.0469778105617,1.21846967915e-07,0.0,0.0,0.0,1.21846967915e-07,0.0,0.0,0.0,1.21846967915e-07,-0.0536495298147,0.153429314494,10.4497127533,9e-08,0.0,0.0,0.0,9e-08,0.0,0.0,0.0,9e-08
2767990000000,1794,2767990000000,base_link,0.0121238338618,-0.0126883899098,0.0184752396321,-0.999675283565,1.0,0.0,0.0,0.0,1.0,0.0,0.0,0.0,1.0,-0.254025548697,0.088628180325,0.0666099190712,1.21846967915e-07,0.0,0.0,0.0,1.21846967915e-07,0.0,0.0,0.0,1.21846967915e-07,0.556380689144,0.572510659695,11.5040416718,9e-08,0.0,0.0,0.0,9e-08,0.0,0.0,0.0,9e-08
2768010000000,1795,2768010000000,base_link,0.0156261412783,-0.0146318372767,0.0177131403174,-0.999613917753,1.0,0.0,0.0,0.0,1.0,0.0,0.0,0.0,1.0,-0.404973447323,0.237812280655,0.0813741460443,1.21846967915e-07,0.0,0.0,0.0,1.21846967915e-07,0.0,0.0,0.0,1.21846967915e-07,0.701245546341,0.639900684357,12.3048028946,9e-08,0.0,0.0,0.0,9e-08,0.0,0.0,0.0,9e-08
2768030000000,1796,2768030000000,base_link,0.0208262701967,-0.0187017285642,0.0168367387494,-0.999466403784,1.0,0.0,0.0,0.0,1.0,0.0,0.0,0.0,1.0,-0.58584100008,0.461701720953,0.0899033769965,1.21846967915e-07,0.0,0.0,0.0,1.21846967915e-07,0.0,0.0,0.0,1.21846967915e-07,0.244003757834,0.316441446543,13.18800354,9e-08,0.0,0.0,0.0,9e-08,0.0,0.0,0.0,9e-08
2768050000000,1797,2768050000000,base_link,0.0278826365029,-0.0249431117975,0.015956038203,-0.999172640249,1.0,0.0,0.0,0.0,1.0,0.0,0.0,0.0,1.0,-0.792629957199,0.68777346611,0.0928243473172,1.21846967915e-07,0.0,0.0,0.0,1.21846967915e-07,0.0,0.0,0.0,1.21846967915e-07,0.417394310236,0.528328180313,13.9261808395,9e-08,0.0,0.0,0.0,9e-08,0.0,0.0,0.0,9e-08
2768070000000,1798,2768070000000,base_link,0.0368522482959,-0.0332319759252,0.0149969445182,-0.998655414125,1.0,0.0,0.0,0.0,1.0,0.0,0.0,0.0,1.0,-0.937698483467,0.831595778465,0.100651569664,1.21846967915e-07,0.0,0.0,0.0,1.21846967915e-07,0.0,0.0,0.0,1.21846967915e-07,-0.462439417839,-0.438989698887,13.6935224533,9e-08,0.0,0.0,0.0,9e-08,0.0,0.0,0.0,9e-08
2768090000000,1799,2768090000000,base_link,0.0474391077648,-0.0439201606984,0.0137756131421,-0.997812982916,1.0,0.0,0.0,0.0,1.0,0.0,0.0,0.0,1.0,-0.864179670811,0.86203199625,0.108274281025,1.21846967915e-07,0.0,0.0,0.0,1.21846967915e-07,0.0,0.0,0.0,1.21846967915e-07,-0.634243309498,-0.395504206419,13.8067960739,9e-08,0.0,0.0,0.0,9e-08,0.0,0.0,0.0,9e-08
2768110000000,1800,2768110000000,base_link,0.0526721944074,-0.0509638820445,0.0127903884113,-0.997228574715,1.0,0.0,0.0,0.0,1.0,0.0,0.0,0.0,1.0,-0.560895562172,0.704023480415,0.109532229602,1.21846967915e-07,0.0,0.0,0.0,1.21846967915e-07,0.0,0.0,0.0,1.21846967915e-07,-0.237459436059,-0.0549860782921,13.9468450546,9e-08,0.0,0.0,0.0,9e-08,0.0,0.0,0.0,9e-08
2768130000000,1801,2768130000000,base_link,0.0553195774915,-0.055690069034,0.0117634383005,-0.996845038394,1.0,0.0,0.0,0.0,1.0,0.0,0.0,0.0,1.0,-0.249767526984,0.427526921034,0.114894755185,1.21846967915e-07,0.0,0.0,0.0,1.21846967915e-07,0.0,0.0,0.0,1.21846967915e-07,-0.209632754326,-0.088504076004,13.8087902069,9e-08,0.0,0.0,0.0,9e-08,0.0,0.0,0.0,9e-08
2768150000000,1802,2768150000000,base_link,0.0579477210948,-0.0585779890599,0.0108671855669,-0.996540358826,1.0,0.0,0.0,0.0,1.0,0.0,0.0,0.0,1.0,-0.389305472374,0.331872791052,0.11435867846,1.21846967915e-07,0.0,0.0,0.0,1.21846967915e-07,0.0,0.0,0.0,1.21846967915e-07,-0.346092104912,-0.401248306036,13.7728996277,9e-08,0.0,0.0,0.0,9e-08,0.0,0.0,0.0,9e-08
2768170000000,1803,2768170000000,base_link,0.0644734197448,-0.0628375741135,0.00944283282147,-0.995894374079,1.0,0.0,0.0,0.0,1.0,0.0,0.0,0.0,1.0,-0.602025389671,0.341562449932,0.10498162359,1.21846967915e-07,0.0,0.0,0.0,1.21846967915e-07,0.0,0.0,0.0,1.21846967915e-07,-0.485162168741,-0.624591529369,13.6046905518,9e-08,0.0,0.0,0.0,9e-08,0.0,0.0,0.0,9e-08
2768190000000,1804,2768190000000,base_link,0.0692356882232,-0.0665468432592,0.00839329199985,-0.995342924713,1.0,0.0,0.0,0.0,1.0,0.0,0.0,0.0,1.0,-0.457539737225,0.35613450408,0.097978644073,1.21846967915e-07,0.0,0.0,0.0,1.21846967915e-07,0.0,0.0,0.0,1.21846967915e-07,-0.437213182449,-0.424968153238,13.497800827,9e-08,0.0,0.0,0.0,9e-08,0.0,0.0,0.0,9e-08
2768210000000,1805,2768210000000,base_link,0.0704194665927,-0.0696122890831,0.0075612710634,-0.995056789758,1.0,0.0,0.0,0.0,1.0,0.0,0.0,0.0,1.0,-0.0712677240372,0.281877696514,0.0968535840511,1.21846967915e-07,0.0,0.0,0.0,1.21846967915e-07,0.0,0.0,0.0,1.21846967915e-07,-0.488549798727,-0.11950969696,13.5812988281,9e-08,0.0,0.0,0.0,9e-08,0.0,0.0,0.0,9e-08
2768230000000,1806,2768230000000,base_link,0.0697696075459,-0.0716771548117,0.00688228533389,-0.994960947825,1.0,0.0,0.0,0.0,1.0,0.0,0.0,0.0,1.0,0.0708561316133,0.183702766895,0.086641728878,1.21846967915e-07,0.0,0.0,0.0,1.21846967915e-07,0.0,0.0,0.0,1.21846967915e-07,-0.412846744061,-0.229702860117,13.4208660126,9e-08,0.0,0.0,0.0,9e-08,0.0,0.0,0.0,9e-08
2768250000000,1807,2768250000000,base_link,0.0707609428289,-0.0728007694604,0.0062495346972,-0.994813476002,1.0,0.0,0.0,0.0,1.0,0.0,0.0,0.0,1.0,-0.211660057306,0.11764100194,0.0806362628937,1.21846967915e-07,0.0,0.0,0.0,1.21846967915e-07,0.0,0.0,0.0,1.21846967915e-07,-0.469466388226,-0.70862275362,13.5070028305,9e-08,0.0,0.0,0.0,9e-08,0.0,0.0,0.0,9e-08
2768270000000,1808,2768270000000,base_link,0.0748687426547,-0.0740411729029,0.00530742619243,-0.994426694373,1.0,0.0,0.0,0.0,1.0,0.0,0.0,0.0,1.0,-0.481924712658,0.111578926444,0.0705797672272,1.21846967915e-07,0.0,0.0,0.0,1.21846967915e-07,0.0,0.0,0.0,1.21846967915e-07,-0.59712356329,-0.943094074726,13.5087413788,9e-08,0.0,0.0,0.0,9e-08,0.0,0.0,0.0,9e-08
2768290000000,1809,2768290000000,base_link,0.0785354645157,-0.0755617481794,0.00432586823746,-0.994034180773,1.0,0.0,0.0,0.0,1.0,0.0,0.0,0.0,1.0,-0.233469873667,0.113635390997,0.067346803844,1.21846967915e-07,0.0,0.0,0.0,1.21846967915e-07,0.0,0.0,0.0,1.21846967915e-07,-0.622441530228,-0.521560609341,13.5727901459,9e-08,0.0,0.0,0.0,9e-08,0.0,0.0,0.0,9e-08
2768310000000,1810,2768310000000,base_link,0.0775333143679,-0.0764028657558,0.00395636681657,-0.994050154428,1.0,0.0,0.0,0.0,1.0,0.0,0.0,0.0,1.0,0.215698614717,0.0859182626009,0.0657381415367,1.21846967915e-07,0.0,0.0,0.0,1.21846967915e-07,0.0,0.0,0.0,1.21846967915e-07,-0.690634250641,-0.254543811083,13.8436946869,9e-08,0.0,0.0,0.0,9e-08,0.0,0.0,0.0,9e-08
2768326000000,1811,2768330000000,base_link,0.0748833935825,-0.0770662369834,0.00360098458992,-0.994203400369,1.0,0.0,0.0,0.0,1.0,0.0,0.0,0.0,1.0,0.268786013126,0.0492359809577,0.0602030195296,1.21846967915e-07,0.0,0.0,0.0,1.21846967915e-07,0.0,0.0,0.0,1.21846967915e-07,-0.657338142395,-0.36160209775,13.7555809021,9e-08,0.0,0.0,0.0,9e-08,0.0,0.0,0.0,9e-08
2768350000000,1812,2768350000000,base_link,0.0761454920741,-0.0774277720737,0.00287163337644,-0.994081806712,1.0,0.0,0.0,0.0,1.0,0.0,0.0,0.0,1.0,-0.221775591373,0.0147296478972,0.0535811632872,1.21846967915e-07,0.0,0.0,0.0,1.21846967915e-07,0.0,0.0,0.0,1.21846967915e-07,-0.710835635662,-0.987675130367,13.8882961273,9e-08,0.0,0.0,0.0,9e-08,0.0,0.0,0.0,9e-08
2768370000000,1813,2768370000000,base_link,0.0804702819449,-0.0776750617927,0.00207906189019,-0.993723769233,1.0,0.0,0.0,0.0,1.0,0.0,0.0,0.0,1.0,-0.462486416101,0.0149058774114,0.0484301820397,1.21846967915e-07,0.0,0.0,0.0,1.21846967915e-07,0.0,0.0,0.0,1.21846967915e-07,-0.750701665878,-1.10023903847,13.6670560837,9e-08,0.0,0.0,0.0,9e-08,0.0,0.0,0.0,9e-08
2768390000000,1814,2768390000000,base_link,0.0820505511942,-0.0779678722482,0.00155024538193,-0.993572504194,1.0,0.0,0.0,0.0,1.0,0.0,0.0,0.0,1.0,-0.210314244032,0.0217740572989,0.0416118614376,1.21846967915e-07,0.0,0.0,0.0,1.21846967915e-07,0.0,0.0,0.0,1.21846967915e-07,-0.758407771587,-0.437053471804,13.8033370972,9e-08,0.0,0.0,0.0,9e-08,0.0,0.0,0.0,9e-08
2768410000000,1815,2768410000000,base_link,0.0796477857847,-0.0781213130363,0.00134937350192,-0.993756264454,1.0,0.0,0.0,0.0,1.0,0.0,0.0,0.0,1.0,0.324569374323,0.00991872977465,0.0517621822655,1.21846967915e-07,0.0,0.0,0.0,1.21846967915e-07,0.0,0.0,0.0,1.21846967915e-07,-0.809053361416,-0.33128041029,13.6654548645,9e-08,0.0,0.0,0.0,9e-08,0.0,0.0,0.0,9e-08
2768430000000,1816,2768430000000,base_link,0.0759405158978,-0.0781166572913,0.00116165143866,-0.994047077708,1.0,0.0,0.0,0.0,1.0,0.0,0.0,0.0,1.0,0.362370371819,-0.0140088582411,0.0489363670349,1.21846967915e-07,0.0,0.0,0.0,1.21846967915e-07,0.0,0.0,0.0,1.21846967915e-07,-0.83011931181,-0.63650727272,13.6294565201,9e-08,0.0,0.0,0.0,9e-08,0.0,0.0,0.0,9e-08
2768450000000,1817,2768450000000,base_link,0.0768952632711,-0.0779878300981,0.00066967127599,-0.993984236757,1.0,0.0,0.0,0.0,1.0,0.0,0.0,0.0,1.0,-0.293378502131,-0.020642966032,0.0361348204315,1.21846967915e-07,0.0,0.0,0.0,1.21846967915e-07,0.0,0.0,0.0,1.21846967915e-07,-0.772651493549,-1.29797232151,13.6743984222,9e-08,0.0,0.0,0.0,9e-08,0.0,0.0,0.0,9e-08
2768470000000,1818,2768470000000,base_link,0.0815120397583,-0.0779399511136,-5.39479660933e-06,-0.99362029872,1.0,0.0,0.0,0.0,1.0,0.0,0.0,0.0,1.0,-0.471450924873,-0.0101034753025,0.0312699116766,1.21846967915e-07,0.0,0.0,0.0,1.21846967915e-07,0.0,0.0,0.0,1.21846967915e-07,-0.779880583286,-1.1878207922,13.7038345337,9e-08,0.0,0.0,0.0,9e-08,0.0,0.0,0.0,9e-08
2768490000000,1819,2768490000000,base_link,0.0828988696255,-0.0779460324428,-0.000402544550128,-0.993504942796,1.0,0.0,0.0,0.0,1.0,0.0,0.0,0.0,1.0,0.0666201934218,-0.0104887895286,0.0293444022536,1.21846967915e-07,0.0,0.0,0.0,1.21846967915e-07,0.0,0.0,0.0,1.21846967915e-07,-0.985928118229,-0.50791567564,13.7775602341,9e-08,0.0,0.0,0.0,9e-08,0.0,0.0,0.0,9e-08
2768510000000,1820,2768506000000,base_link,0.0787864495336,-0.0778229471404,-0.000473814870959,-0.993849156108,1.0,0.0,0.0,0.0,1.0,0.0,0.0,0.0,1.0,0.524004518986,-0.0262800175697,0.0445757247508,1.21846967915e-07,0.0,0.0,0.0,1.21846967915e-07,0.0,0.0,0.0,1.21846967915e-07,-0.951732218266,-0.416222006083,13.5940732956,9e-08,0.0,0.0,0.0,9e-08,0.0,0.0,0.0,9e-08
2768530000000,1821,2768530000000,base_link,0.0750452586365,-0.0774025582155,-0.000652264627555,-0.994171326618,1.0,0.0,0.0,0.0,1.0,0.0,0.0,0.0,1.0,0.212997227907,-0.0492678880692,0.034757591784,1.21846967915e-07,0.0,0.0,0.0,1.21846967915e-07,0.0,0.0,0.0,1.21846967915e-07,-0.999908447266,-0.964009523392,13.6196908951,9e-08,0.0,0.0,0.0,9e-08,0.0,0.0,0.0,9e-08
2768550000000,1822,2768550000000,base_link,0.0783706091757,-0.0769849082184,-0.00113859711252,-0.993946810356,1.0,0.0,0.0,0.0,1.0,0.0,0.0,0.0,1.0,-0.424353867769,-0.048244740814,0.0189414676279,1.21846967915e-07,0.0,0.0,0.0,1.21846967915e-07,0.0,0.0,0.0,1.21846967915e-07,-1.00308036804,-1.59859621525,13.6696214676,9e-08,0.0,0.0,0.0,9e-08,0.0,0.0,0.0,9e-08
2768570000000,1823,2768570000000,base_link,0.08239459526,-0.0768505915629,-0.0016330217924,-0.99363100402,1.0,0.0,0.0,0.0,1.0,0.0,0.0,0.0,1.0,-0.460102081299,-0.0164609570056,0.0255553685129,1.21846967915e-07,0.0,0.0,0.0,1.21846967915e-07,0.0,0.0,0.0,1.21846967915e-07,-1.09587478638,-1.40252232552,13.4859695435,9e-08,0.0,0.0,0.0,9e-08,0.0,0.0,0.0,9e-08
2768590000000,1824,2768590000000,base_link,0.0820176295664,-0.0767758062608,-0.00195982845576,-0.993667334603,1.0,0.0,0.0,0.0,1.0,0.0,0.0,0.0,1.0,0.0535988509655,-0.0129941757768,0.027321562171,1.21846967915e-07,0.0,0.0,0.0,1.21846967915e-07,0.0,0.0,0.0,1.21846967915e-07,-1.17135870457,-0.403880029917,13.6443080902,9e-08,0.0,0.0,0.0,9e-08,0.0,0.0,0.0,9e-08
2768610000000,1825,2768610000000,base_link,0.0762766857058,-0.0765688498823,-0.00188973824668,-0.994140601565,1.0,0.0,0.0,0.0,1.0,0.0,0.0,0.0,1.0,0.623749613762,-0.0339621901512,0.037039514631,1.21846967915e-07,0.0,0.0,0.0,1.21846967915e-07,0.0,0.0,0.0,1.21846967915e-07,-1.10128128529,-0.487669557333,13.4554071426,9e-08,0.0,0.0,0.0,9e-08,0.0,0.0,0.0,9e-08
2768630000000,1826,2768630000000,base_link,0.0735464113364,-0.0761469403781,-0.00199063780202,-0.994378562672,1.0,0.0,0.0,0.0,1.0,0.0,0.0,0.0,1.0,0.198812946677,-0.0529743134975,0.0262834429741,1.21846967915e-07,0.0,0.0,0.0,1.21846967915e-07,0.0,0.0,0.0,1.21846967915e-07,-1.09268414974,-1.22388708591,13.6874914169,9e-08,0.0,0.0,0.0,9e-08,0.0,0.0,0.0,9e-08
2768650000000,1827,2768650000000,base_link,0.0770858407422,-0.0758250119244,-0.00246563278474,-0.994133942363,1.0,0.0,0.0,0.0,1.0,0.0,0.0,0.0,1.0,-0.442060083151,-0.0360723622143,0.0191787555814,1.21846967915e-07,0.0,0.0,0.0,1.21846967915e-07,0.0,0.0,0.0,1.21846967915e-07,-1.1142333746,-1.72188723087,13.4346170425,9e-08,0.0,0.0,0.0,9e-08,0.0,0.0,0.0,9e-08
2768670000000,1828,2768670000000,base_link,0.0803355106467,-0.0756869700884,-0.00282160506726,-0.993886203188,1.0,0.0,0.0,0.0,1.0,0.0,0.0,0.0,1.0,-0.32200729847,-0.0231269933283,0.012597004883,1.21846967915e-07,0.0,0.0,0.0,1.21846967915e-07,0.0,0.0,0.0,1.21846967915e-07,-1.24035036564,-1.39868366718,13.498465538,9e-08,0.0,0.0,0.0,9e-08,0.0,0.0,0.0,9e-08
2768690000000,1829,2768690000000,base_link,0.0776650100986,-0.0751667013232,-0.00293325206896,-0.994137609139,1.0,0.0,0.0,0.0,1.0,0.0,0.0,0.0,1.0,0.401876837015,-0.0646311044693,0.0271268449724,1.21846967915e-07,0.0,0.0,0.0,1.21846967915e-07,0.0,0.0,0.0,1.21846967915e-07,-1.20570278168,-0.574600696564,13.5027608871,9e-08,0.0,0.0,0.0,9e-08,0.0,0.0,0.0,9e-08
2768710000000,1830,2768710000000,base_link,0.0722153014962,-0.0744181363328,-0.00283483917769,-0.994604891248,1.0,0.0,0.0,0.0,1.0,0.0,0.0,0.0,1.0,0.699616312981,-0.112661577761,0.0341414101422,1.21846967915e-07,0.0,0.0,0.0,1.21846967915e-07,0.0,0.0,0.0,1.21846967915e-07,-1.1820141077,-0.566938817501,12.8493032455,9e-08,0.0,0.0,0.0,9e-08,0.0,0.0,0.0,9e-08
2768730000000,1831,2768730000000,base_link,0.0678255989756,-0.0734407221868,-0.00285110786122,-0.994986488815,1.0,0.0,0.0,0.0,1.0,0.0,0.0,0.0,1.0,0.380404770374,-0.10532848537,0.0261138323694,1.21846967915e-07,0.0,0.0,0.0,1.21846967915e-07,0.0,0.0,0.0,1.21846967915e-07,-1.22228002548,-1.34567296505,11.5763788223,9e-08,0.0,0.0,0.0,9e-08,0.0,0.0,0.0,9e-08
2768750000000,1832,2768750000000,base_link,0.0700994412091,-0.07306357243,-0.00327666459063,-0.994855369969,1.0,0.0,0.0,0.0,1.0,0.0,0.0,0.0,1.0,-0.324850231409,-0.0193596594036,0.0208826810122,1.21846967915e-07,0.0,0.0,0.0,1.21846967915e-07,0.0,0.0,0.0,1.21846967915e-07,-1.12047243118,-1.54508471489,9.21722793579,9e-08,0.0,0.0,0.0,9e-08,0.0,0.0,0.0,9e-08
2768770000000,1833,2768770000000,base_link,0.074578148613,-0.0734433535249,-0.00366146531754,-0.994500324917,1.0,0.0,0.0,0.0,1.0,0.0,0.0,0.0,1.0,-0.461527317762,0.0398813635111,0.00869232416153,1.21846967915e-07,0.0,0.0,0.0,1.21846967915e-07,0.0,0.0,0.0,1.21846967915e-07,-1.07647490501,-1.30173456669,7.92733240128,9e-08,0.0,0.0,0.0,9e-08,0.0,0.0,0.0,9e-08
2768790000000,1834,2768790000000,base_link,0.0771839107375,-0.0739736119575,-0.0039484010622,-0.994261015111,1.0,0.0,0.0,0.0,1.0,0.0,0.0,0.0,1.0,-0.225938335061,0.0475522689521,0.0155979087576,1.21846967915e-07,0.0,0.0,0.0,1.21846967915e-07,0.0,0.0,0.0,1.21846967915e-07,-0.993444144726,-0.771264970303,6.57754659653,9e-08,0.0,0.0,0.0,9e-08,0.0,0.0,0.0,9e-08
2768810000000,1835,2768810000000,base_link,0.0773479446256,-0.0744960975482,-0.00415728084342,-0.994208415844,1.0,0.0,0.0,0.0,1.0,0.0,0.0,0.0,1.0,0.0135300010443,0.0468080192804,0.0252001956105,1.21846967915e-07,0.0,0.0,0.0,1.21846967915e-07,0.0,0.0,0.0,1.21846967915e-07,-0.888585269451,-0.577265977859,5.65357112885,9e-08,0.0,0.0,0.0,9e-08,0.0,0.0,0.0,9e-08
2768830000000,1836,2768830000000,base_link,0.0775557256253,-0.0756109057281,-0.00441475594097,-0.99410696838,1.0,0.0,0.0,0.0,1.0,0.0,0.0,0.0,1.0,-0.0339733175933,0.114970475435,0.0341687947512,1.21846967915e-07,0.0,0.0,0.0,1.21846967915e-07,0.0,0.0,0.0,1.21846967915e-07,-0.95309484005,-0.759328186512,5.21188163757,9e-08,0.0,0.0,0.0,9e-08,0.0,0.0,0.0,9e-08
2768850000000,1837,2768850000000,base_link,0.0788492374308,-0.0770799828653,-0.0046473643979,-0.993891302956,1.0,0.0,0.0,0.0,1.0,0.0,0.0,0.0,1.0,-0.170688435435,0.182150110602,0.0320440083742,1.21846967915e-07,0.0,0.0,0.0,1.21846967915e-07,0.0,0.0,0.0,1.21846967915e-07,-0.969142735004,-0.963138103485,5.23654270172,9e-08,0.0,0.0,0.0,9e-08,0.0,0.0,0.0,9e-08
2768870000000,1838,2768870000000,base_link,0.0813934352339,-0.07950993505,-0.00504426127033,-0.993492804504,1.0,0.0,0.0,0.0,1.0,0.0,0.0,0.0,1.0,-0.226406827569,0.202856302261,0.0342839732766,1.21846967915e-07,0.0,0.0,0.0,1.21846967915e-07,0.0,0.0,0.0,1.21846967915e-07,-0.940646529198,-0.850357890129,5.59437084198,9e-08,0.0,0.0,0.0,9e-08,0.0,0.0,0.0,9e-08
2768890000000,1839,2768890000000,base_link,0.082059326629,-0.0807815342809,-0.00523952761948,-0.9933343745,1.0,0.0,0.0,0.0,1.0,0.0,0.0,0.0,1.0,-0.0341256521642,0.133985131979,0.0314927771688,1.21846967915e-07,0.0,0.0,0.0,1.21846967915e-07,0.0,0.0,0.0,1.21846967915e-07,-0.952836453915,-0.804112434387,5.98782587051,9e-08,0.0,0.0,0.0,9e-08,0.0,0.0,0.0,9e-08
2768910000000,1840,2768910000000,base_link,0.080656452395,-0.0814302644178,-0.00538573503696,-0.993395529577,1.0,0.0,0.0,0.0,1.0,0.0,0.0,0.0,1.0,0.1626085639,0.0150829739869,0.0248570609838,1.21846967915e-07,0.0,0.0,0.0,1.21846967915e-07,0.0,0.0,0.0,1.21846967915e-07,-0.80746358633,-0.792741298676,6.31992149353,9e-08,0.0,0.0,0.0,9e-08,0.0,0.0,0.0,9e-08
2768930000000,1841,2768930000000,base_link,0.0783588546501,-0.0807546127345,-0.0054992365,-0.993633954299,1.0,0.0,0.0,0.0,1.0,0.0,0.0,0.0,1.0,0.237768366933,-0.0910051167011,0.0244879145175,1.21846967915e-07,0.0,0.0,0.0,1.21846967915e-07,0.0,0.0,0.0,1.21846967915e-07,-0.865503489971,-0.842467367649,6.75699996948,9e-08,0.0,0.0,0.0,9e-08,0.0,0.0,0.0,9e-08
2768950000000,1842,2768950000000,base_link,0.0766200489601,-0.0795205588547,-0.0056226003256,-0.993868332924,1.0,0.0,0.0,0.0,1.0,0.0,0.0,0.0,1.0,0.212819486856,-0.18241751194,0.0174213778228,1.21846967915e-07,0.0,0.0,0.0,1.21846967915e-07,0.0,0.0,0.0,1.21846967915e-07,-0.891242027283,-0.971565008163,7.13033437729,9e-08,0.0,0.0,0.0,9e-08,0.0,0.0,0.0,9e-08
2768970000000,1843,2768970000000,base_link,0.0743816612812,-0.0774039548238,-0.00575182256313,-0.994204664775,1.0,0.0,0.0,0.0,1.0,0.0,0.0,0.0,1.0,0.236585155129,-0.240625560284,0.0131197515875,1.21846967915e-07,0.0,0.0,0.0,1.21846967915e-07,0.0,0.0,0.0,1.21846967915e-07,-0.962544977665,-0.978827178478,7.3994846344,9e-08,0.0,0.0,0.0,9e-08,0.0,0.0,0.0,9e-08
2768990000000,1844,2768990000000,base_link,0.0712872641943,-0.074733337384,-0.00581837243693,-0.994635194832,1.0,0.0,0.0,0.0,1.0,0.0,0.0,0.0,1.0,0.344058781862,-0.296481817961,0.011263711378,1.21846967915e-07,0.0,0.0,0.0,1.21846967915e-07,0.0,0.0,0.0,1.21846967915e-07,-0.972994863987,-0.919822454453,7.74518871307,9e-08,0.0,0.0,0.0,9e-08,0.0,0.0,0.0,9e-08
2769010000000,1845,2769010000000,base_link,0.0674827916563,-0.0715941693133,-0.00585541951677,-0.995131221093,1.0,0.0,0.0,0.0,1.0,0.0,0.0,0.0,1.0,0.394077479839,-0.337752223015,0.00488305650651,1.21846967915e-07,0.0,0.0,0.0,1.21846967915e-07,0.0,0.0,0.0,1.21846967915e-07,-0.995292067528,-0.872494220734,7.80614805222,9e-08,0.0,0.0,0.0,9e-08,0.0,0.0,0.0,9e-08
2769030000000,1846,2769030000000,base_link,0.0636918161527,-0.0681405546366,-0.00584252258113,-0.995623496283,1.0,0.0,0.0,0.0,1.0,0.0,0.0,0.0,1.0,0.367136001587,-0.362646669149,0.00140918046236,1.21846967915e-07,0.0,0.0,0.0,1.21846967915e-07,0.0,0.0,0.0,1.21846967915e-07,-1.04731416702,-1.06512725353,7.91391324997,9e-08,0.0,0.0,0.0,9e-08,0.0,0.0,0.0,9e-08
2769050000000,1847,2769050000000,base_link,0.0567431826242,-0.0666567101328,0.041065107497,-0.995314433443,1.0,0.0,0.0,0.0,1.0,0.0,0.0,0.0,1.0,0.311738550663,-0.358714878559,-0.00334744201973,1.21846967915e-07,0.0,0.0,0.0,1.21846967915e-07,0.0,0.0,0.0,1.21846967915e-07,-1.05624055862,-1.01635563374,7.88300561905,9e-08,0.0,0.0,0.0,9e-08,0.0,0.0,0.0,9e-08
2769070000000,1848,2769070000000,base_link,0.0545816706324,-0.0637696618758,0.0408300966697,-0.995634075142,1.0,0.0,0.0,0.0,1.0,0.0,0.0,0.0,1.0,0.288472443819,-0.35042437911,-0.000787862867583,1.21846967915e-07,0.0,0.0,0.0,1.21846967915e-07,0.0,0.0,0.0,1.21846967915e-07,-1.04075038433,-1.09325289726,7.92793703079,9e-08,0.0,0.0,0.0,9e-08,0.0,0.0,0.0,9e-08
2769090000000,1849,2769090000000,base_link,0.0513989227204,-0.0595191387033,0.0403984286473,-0.996084203484,1.0,0.0,0.0,0.0,1.0,0.0,0.0,0.0,1.0,0.284538298845,-0.344687193632,0.00586246000603,1.21846967915e-07,0.0,0.0,0.0,1.21846967915e-07,0.0,0.0,0.0,1.21846967915e-07,-1.04749584198,-1.06968343258,8.02998352051,9e-08,0.0,0.0,0.0,9e-08,0.0,0.0,0.0,9e-08
2769110000000,1850,2769110000000,base_link,0.0494130201826,-0.05669238744,0.0399050154918,-0.996369411208,1.0,0.0,0.0,0.0,1.0,0.0,0.0,0.0,1.0,0.256442666054,-0.342599391937,0.0233886092901,1.21846967915e-07,0.0,0.0,0.0,1.21846967915e-07,0.0,0.0,0.0,1.21846967915e-07,-1.021956563,-0.984441280365,8.05007839203,9e-08,0.0,0.0,0.0,9e-08,0.0,0.0,0.0,9e-08
2769130000000,1851,2769130000000,base_link,0.047400405104,-0.053327159479,0.03890335349,-0.996692508949,1.0,0.0,0.0,0.0,1.0,0.0,0.0,0.0,1.0,0.212047532201,-0.329025268555,0.0493435561657,1.21846967915e-07,0.0,0.0,0.0,1.21846967915e-07,0.0,0.0,0.0,1.21846967915e-07,-1.06919836998,-1.08941090107,8.00203037262,9e-08,0.0,0.0,0.0,9e-08,0.0,0.0,0.0,9e-08
2769150000000,1852,2769150000000,base_link,0.045765942087,-0.0502584872809,0.0376783131912,-0.996975398596,1.0,0.0,0.0,0.0,1.0,0.0,0.0,0.0,1.0,0.17373046279,-0.300608634949,0.0685707256198,1.21846967915e-07,0.0,0.0,0.0,1.21846967915e-07,0.0,0.0,0.0,1.21846967915e-07,-1.05913639069,-1.05513525009,7.88026046753,9e-08,0.0,0.0,0.0,9e-08,0.0,0.0,0.0,9e-08
2769170000000,1853,2769170000000,base_link,0.0439154438733,-0.0470300584413,0.0358430286728,-0.997283787087,1.0,0.0,0.0,0.0,1.0,0.0,0.0,0.0,1.0,0.169951528311,-0.26073217392,0.090121537447,1.21846967915e-07,0.0,0.0,0.0,1.21846967915e-07,0.0,0.0,0.0,1.21846967915e-07,-1.0945186615,-0.992237210274,7.83281087875,9e-08,0.0,0.0,0.0,9e-08,0.0,0.0,0.0,9e-08
2769190000000,1854,2769190000000,base_link,0.042502680935,-0.0451752499715,0.0344245764862,-0.997480655016,1.0,0.0,0.0,0.0,1.0,0.0,0.0,0.0,1.0,0.191288873553,-0.222671866417,0.114907220006,1.21846967915e-07,0.0,0.0,0.0,1.21846967915e-07,0.0,0.0,0.0,1.21846967915e-07,-1.07254970074,-1.01280903816,7.81736946106,9e-08,0.0,0.0,0.0,9e-08,0.0,0.0,0.0,9e-08
2769210000000,1855,2769210000000,base_link,0.0407030086103,-0.0431341432117,0.0325470186787,-0.997709090935,1.0,0.0,0.0,0.0,1.0,0.0,0.0,0.0,1.0,0.186446666718,-0.194307029247,0.123083859682,1.21846967915e-07,0.0,0.0,0.0,1.21846967915e-07,0.0,0.0,0.0,1.21846967915e-07,-1.11161243916,-1.00555741787,7.85185623169,9e-08,0.0,0.0,0.0,9e-08,0.0,0.0,0.0,9e-08
2769230000000,1856,2769230000000,base_link,0.039039834946,-0.0412623711293,0.0304854055838,-0.997919867324,1.0,0.0,0.0,0.0,1.0,0.0,0.0,0.0,1.0,0.170566424727,-0.177971929312,0.130928575993,1.21846967915e-07,0.0,0.0,0.0,1.21846967915e-07,0.0,0.0,0.0,1.21846967915e-07,-1.01449084282,-1.01324415207,7.86715698242,9e-08,0.0,0.0,0.0,9e-08,0.0,0.0,0.0,9e-08
2769250000000,1857,2769250000000,base_link,0.0372527314371,-0.0393575582226,0.0279881205158,-0.998138188,1.0,0.0,0.0,0.0,1.0,0.0,0.0,0.0,1.0,0.154267773032,-0.152846366167,0.131405636668,1.21846967915e-07,0.0,0.0,0.0,1.21846967915e-07,0.0,0.0,0.0,1.21846967915e-07,-1.09967768192,-1.05612552166,7.95827150345,9e-08,0.0,0.0,0.0,9e-08,0.0,0.0,0.0,9e-08
2769270000000,1858,2769270000000,base_link,0.0360428273722,-0.0383445163249,0.026212768816,-0.99827031837,1.0,0.0,0.0,0.0,1.0,0.0,0.0,0.0,1.0,0.158016294241,-0.125478446484,0.136412084103,1.21846967915e-07,0.0,0.0,0.0,1.21846967915e-07,0.0,0.0,0.0,1.21846967915e-07,-1.11022377014,-0.937735319138,7.97713661194,9e-08,0.0,0.0,0.0,9e-08,0.0,0.0,0.0,9e-08
2769290000000,1859,2769290000000,base_link,0.0344727211934,-0.0372757609032,0.0240113124777,-0.998421583409,1.0,0.0,0.0,0.0,1.0,0.0,0.0,0.0,1.0,0.161189973354,-0.100042685866,0.136481076479,1.21846967915e-07,0.0,0.0,0.0,1.21846967915e-07,0.0,0.0,0.0,1.21846967915e-07,-1.07349097729,-0.98372733593,8.10321903229,9e-08,0.0,0.0,0.0,9e-08,0.0,0.0,0.0,9e-08
2769310000000,1860,2769310000000,base_link,0.0326592168822,-0.0362235903487,0.0213881347733,-0.998580940643,1.0,0.0,0.0,0.0,1.0,0.0,0.0,0.0,1.0,0.14961591363,-0.0874432176352,0.138943582773,1.21846967915e-07,0.0,0.0,0.0,1.21846967915e-07,0.0,0.0,0.0,1.21846967915e-07,-1.01283431053,-1.01846528053,8.2438211441,9e-08,0.0,0.0,0.0,9e-08,0.0,0.0,0.0,9e-08
2769330000000,1861,2769330000000,base_link,0.0315751031324,-0.0356454060514,0.0196778156607,-0.998671809249,1.0,0.0,0.0,0.0,1.0,0.0,0.0,0.0,1.0,0.136881053448,-0.0724338442087,0.127447530627,1.21846967915e-07,0.0,0.0,0.0,1.21846967915e-07,0.0,0.0,0.0,1.21846967915e-07,-1.04242300987,-1.00644648075,8.19850730896,9e-08,0.0,0.0,0.0,9e-08,0.0,0.0,0.0,9e-08
2769350000000,1862,2769350000000,base_link,0.0299115910586,-0.034953109491,0.0171576870008,-0.998793950816,1.0,0.0,0.0,0.0,1.0,0.0,0.0,0.0,1.0,0.141826018691,-0.058754183352,0.129591166973,1.21846967915e-07,0.0,0.0,0.0,1.21846967915e-07,0.0,0.0,0.0,1.21846967915e-07,-1.09421563148,-0.913194656372,8.32489871979,9e-08,0.0,0.0,0.0,9e-08,0.0,0.0,0.0,9e-08
2769370000000,1863,2769370000000,base_link,0.0288603587654,-0.0345500805814,0.015540638864,-0.99886530543,1.0,0.0,0.0,0.0,1.0,0.0,0.0,0.0,1.0,0.13573256135,-0.0529926121235,0.114257320762,1.21846967915e-07,0.0,0.0,0.0,1.21846967915e-07,0.0,0.0,0.0,1.21846967915e-07,-1.05348134041,-0.996140658855,8.30375766754,9e-08,0.0,0.0,0.0,9e-08,0.0,0.0,0.0,9e-08
2769390000000,1864,2769390000000,base_link,0.0273274742631,-0.0339727355991,0.013163008699,-0.998962369622,1.0,0.0,0.0,0.0,1.0,0.0,0.0,0.0,1.0,0.126167461276,-0.0496566444635,0.113436743617,1.21846967915e-07,0.0,0.0,0.0,1.21846967915e-07,0.0,0.0,0.0,1.21846967915e-07,-1.07955396175,-1.03389894962,8.36583995819,9e-08,0.0,0.0,0.0,9e-08,0.0,0.0,0.0,9e-08
2769410000000,1865,2769410000000,base_link,0.0261672600978,-0.0328413940007,0.0113382187459,-0.999053659696,1.0,0.0,0.0,0.0,1.0,0.0,0.0,0.0,1.0,0.117888227105,-0.137821048498,0.101398065686,1.21846967915e-07,0.0,0.0,0.0,1.21846967915e-07,0.0,0.0,0.0,1.21846967915e-07,-0.98654282093,-0.941513538361,8.3787279129,9e-08,0.0,0.0,0.0,9e-08,0.0,0.0,0.0,9e-08
2769430000000,1866,2769426000000,base_link,0.0251922931855,-0.0292582582718,0.00988271947938,-0.999205556938,1.0,0.0,0.0,0.0,1.0,0.0,0.0,0.0,1.0,0.131671324372,-0.540528893471,0.082438968122,1.21846967915e-07,0.0,0.0,0.0,1.21846967915e-07,0.0,0.0,0.0,1.21846967915e-07,-0.473577439785,-0.704320549965,4.45769119263,9e-08,0.0,0.0,0.0,9e-08,0.0,0.0,0.0,9e-08
2769450000000,1867,2769450000000,base_link,0.023709615211,-0.0225175013144,0.0078500612694,-0.999434498619,1.0,0.0,0.0,0.0,1.0,0.0,0.0,0.0,1.0,0.127810835838,-0.551614880562,0.0764265209436,1.21846967915e-07,0.0,0.0,0.0,1.21846967915e-07,0.0,0.0,0.0,1.21846967915e-07,-0.728501200676,-0.798709213734,6.03831195831,9e-08,0.0,0.0,0.0,9e-08,0.0,0.0,0.0,9e-08
2769470000000,1868,2769470000000,base_link,0.0228770261976,-0.0207715066232,0.00649942336202,-0.999501343521,1.0,0.0,0.0,0.0,1.0,0.0,0.0,0.0,1.0,0.106924392283,-0.209006756544,0.0854025483131,1.21846967915e-07,0.0,0.0,0.0,1.21846967915e-07,0.0,0.0,0.0,1.21846967915e-07,-1.48478543758,-1.00020718575,8.97489833832,9e-08,0.0,0.0,0.0,9e-08,0.0,0.0,0.0,9e-08
2769490000000,1869,2769490000000,base_link,0.0218771013128,-0.0227215821583,0.00450258997327,-0.999492324095,1.0,0.0,0.0,0.0,1.0,0.0,0.0,0.0,1.0,0.0803981870413,0.224964737892,0.0912281572819,1.21846967915e-07,0.0,0.0,0.0,1.21846967915e-07,0.0,0.0,0.0,1.21846967915e-07,-1.35033714771,-0.974716186523,9.83657455444,9e-08,0.0,0.0,0.0,9e-08,0.0,0.0,0.0,9e-08
2769510000000,1870,2769510000000,base_link,0.0203791777448,-0.0283677249973,0.00324547592273,-0.999384554604,1.0,0.0,0.0,0.0,1.0,0.0,0.0,0.0,1.0,0.246972441673,0.94315725565,0.105975240469,1.21846967915e-07,0.0,0.0,0.0,1.21846967915e-07,0.0,0.0,0.0,1.21846967915e-07,-1.64841198921,-0.930080711842,11.8491926193,9e-08,0.0,0.0,0.0,9e-08,0.0,0.0,0.0,9e-08
2769530000000,1871,2769530000000,base_link,0.0157685900942,-0.0459703473875,0.00178719496426,-0.998816752261,1.0,0.0,0.0,0.0,1.0,0.0,0.0,0.0,1.0,0.529119729996,2.06692218781,0.123392522335,1.21846967915e-07,0.0,0.0,0.0,1.21846967915e-07,0.0,0.0,0.0,1.21846967915e-07,-2.31482601166,-0.717868506908,13.192155838,9e-08,0.0,0.0,0.0,9e-08,0.0,0.0,0.0,9e-08
2769550000000,1872,2769550000000,base_link,0.0113322128199,-0.0674935996888,0.000278632815506,-0.997655311556,1.0,0.0,0.0,0.0,1.0,0.0,0.0,0.0,1.0,0.284898459911,1.63682103157,0.0868065580726,1.21846967915e-07,0.0,0.0,0.0,1.21846967915e-07,0.0,0.0,0.0,1.21846967915e-07,-1.4543056488,-0.985404849052,12.4101953506,9e-08,0.0,0.0,0.0,9e-08,0.0,0.0,0.0,9e-08
2769570000000,1873,2769570000000,base_link,0.013335294479,-0.0723087875691,-0.000719067382444,-0.997292932953,1.0,0.0,0.0,0.0,1.0,0.0,0.0,0.0,1.0,-0.284493476152,0.282418698072,0.0106917079538,1.21846967915e-07,0.0,0.0,0.0,1.21846967915e-07,0.0,0.0,0.0,1.21846967915e-07,-0.102758526802,-1.39707267284,11.4797592163,9e-08,0.0,0.0,0.0,9e-08,0.0,0.0,0.0,9e-08
2769590000000,1874,2769590000000,base_link,0.0170173590687,-0.0686088895941,-0.00132488618294,-0.997497598049,1.0,0.0,0.0,0.0,1.0,0.0,0.0,0.0,1.0,-0.465619087219,-0.633106231689,-0.0418774336576,1.21846967915e-07,0.0,0.0,0.0,1.21846967915e-07,0.0,0.0,0.0,1.21846967915e-07,-0.105654031038,-1.08859288692,9.07810020447,9e-08,0.0,0.0,0.0,9e-08,0.0,0.0,0.0,9e-08
2769610000000,1875,2769610000000,base_link,0.0198914040352,-0.0610098246614,-0.00176886108515,-0.99793744256,1.0,0.0,0.0,0.0,1.0,0.0,0.0,0.0,1.0,-0.249939829111,-0.795388817787,-0.0540535226464,1.21846967915e-07,0.0,0.0,0.0,1.21846967915e-07,0.0,0.0,0.0,1.21846967915e-07,-0.582445442677,-0.71479254961,7.81872415543,9e-08,0.0,0.0,0.0,9e-08,0.0,0.0,0.0,9e-08
2769630000000,1876,2769626000000,base_link,0.0197935732972,-0.0541057994562,-0.00203257391629,-0.998336952537,1.0,0.0,0.0,0.0,1.0,0.0,0.0,0.0,1.0,0.0821876823902,-0.649644136429,-0.0442274585366,1.21846967915e-07,0.0,0.0,0.0,1.21846967915e-07,0.0,0.0,0.0,1.21846967915e-07,-0.969026148319,-0.444622218609,6.66680383682,9e-08,0.0,0.0,0.0,9e-08,0.0,0.0,0.0,9e-08
2769650000000,1877,2769650000000,base_link,0.0187494891754,-0.0472211446791,-0.00243360117987,-0.998705526727,1.0,0.0,0.0,0.0,1.0,0.0,0.0,0.0,1.0,0.0996795296669,-0.56900113821,-0.0272718779743,1.21846967915e-07,0.0,0.0,0.0,1.21846967915e-07,0.0,0.0,0.0,1.21846967915e-07,-0.884598195553,-0.666256129742,6.072722435,9e-08,0.0,0.0,0.0,9e-08,0.0,0.0,0.0,9e-08
2769670000000,1878,2769670000000,base_link,0.01928374131,-0.0416807320252,-0.00277638149881,-0.99894100117,1.0,0.0,0.0,0.0,1.0,0.0,0.0,0.0,1.0,-0.0744252577424,-0.561996877193,-0.0329397916794,1.21846967915e-07,0.0,0.0,0.0,1.21846967915e-07,0.0,0.0,0.0,1.21846967915e-07,-0.82331353426,-0.88083845377,5.85520124435,9e-08,0.0,0.0,0.0,9e-08,0.0,0.0,0.0,9e-08
2769690000000,1879,2769690000000,base_link,0.0203649489029,-0.0361492228931,-0.00320788093386,-0.999133780855,1.0,0.0,0.0,0.0,1.0,0.0,0.0,0.0,1.0,-0.109388165176,-0.559393048286,-0.0243088137358,1.21846967915e-07,0.0,0.0,0.0,1.21846967915e-07,0.0,0.0,0.0,1.21846967915e-07,-0.787374138832,-0.689622163773,6.35017204285,9e-08,0.0,0.0,0.0,9e-08,0.0,0.0,0.0,9e-08
2769710000000,1880,2769710000000,base_link,0.0204736245518,-0.0321619466315,-0.00350299316713,-0.999266880603,1.0,0.0,0.0,0.0,1.0,0.0,0.0,0.0,1.0,-0.00885708071291,-0.50398516655,-0.0238195806742,1.21846967915e-07,0.0,0.0,0.0,1.21846967915e-07,0.0,0.0,0.0,1.21846967915e-07,-0.879454255104,-0.738431632519,7.09310388565,9e-08,0.0,0.0,0.0,9e-08,0.0,0.0,0.0,9e-08
2769730000000,1881,2769730000000,base_link,0.0193152309328,-0.027398091637,-0.00397141324148,-0.9994300732,1.0,0.0,0.0,0.0,1.0,0.0,0.0,0.0,1.0,0.115416526794,-0.380412876606,-0.0127561055124,1.21846967915e-07,0.0,0.0,0.0,1.21846967915e-07,0.0,0.0,0.0,1.21846967915e-07,-1.0392614603,-0.644398272038,7.85013055801,9e-08,0.0,0.0,0.0,9e-08,0.0,0.0,0.0,9e-08
2769750000000,1882,2769750000000,base_link,0.0186892353164,-0.0250335075679,-0.00431195977745,-0.999502650073,1.0,0.0,0.0,0.0,1.0,0.0,0.0,0.0,1.0,0.0599101595581,-0.281639158726,-0.0054379766807,1.21846967915e-07,0.0,0.0,0.0,1.21846967915e-07,0.0,0.0,0.0,1.21846967915e-07,-1.06015527248,-0.818367004395,8.4489440918,9e-08,0.0,0.0,0.0,9e-08,0.0,0.0,0.0,9e-08
2769770000000,1883,2769770000000,base_link,0.0166774893519,-0.020801885446,-0.00476575489537,-0.999633178863,1.0,0.0,0.0,0.0,1.0,0.0,0.0,0.0,1.0,0.244179189205,-0.408676594496,-0.00832643080503,1.21846967915e-07,0.0,0.0,0.0,1.21846967915e-07,0.0,0.0,0.0,1.21846967915e-07,-0.980434596539,-0.86090952158,9.02750015259,9e-08,0.0,0.0,0.0,9e-08,0.0,0.0,0.0,9e-08
2769790000000,1884,2769790000000,base_link,0.00970714328175,-0.0146869653134,-0.00495326622439,-0.999832744191,1.0,0.0,0.0,0.0,1.0,0.0,0.0,0.0,1.0,0.904091835022,-0.793531179428,-0.0131312357262,1.21846967915e-07,0.0,0.0,0.0,1.21846967915e-07,0.0,0.0,0.0,1.21846967915e-07,-0.69698536396,-0.0701238811016,15.8317346573,9e-08,0.0,0.0,0.0,9e-08,0.0,0.0,0.0,9e-08
2769810000000,1885,2769810000000,base_link,-0.00745813970073,-0.00125011108824,-0.00517150260598,-0.999958088918,1.0,0.0,0.0,0.0,1.0,0.0,0.0,0.0,1.0,1.50074231625,-1.1935634613,-0.00646583922207,1.21846967915e-07,0.0,0.0,0.0,1.21846967915e-07,0.0,0.0,0.0,1.21846967915e-07,-0.653435826302,-0.186916127801,18.3084182739,9e-08,0.0,0.0,0.0,9e-08,0.0,0.0,0.0,9e-08
2769826000000,1886,2769826000000,base_link,-0.0141211856897,0.00599093875689,-0.00538990757497,-0.999867894662,1.0,0.0,0.0,0.0,1.0,0.0,0.0,0.0,1.0,0.81326675415,-0.911449193954,0.00232985126786,1.21846967915e-07,0.0,0.0,0.0,1.21846967915e-07,0.0,0.0,0.0,1.21846967915e-07,-1.11903977394,-1.15894043446,14.9907398224,9e-08,0.0,0.0,0.0,9e-08,0.0,0.0,0.0,9e-08
2769850000000,1887,2769850000000,base_link,-0.0108350662933,0.00927064392983,-0.00575999905174,-0.999881760976,1.0,0.0,0.0,0.0,1.0,0.0,0.0,0.0,1.0,-0.710006833076,-0.113396666944,0.0131302382797,1.21846967915e-07,0.0,0.0,0.0,1.21846967915e-07,0.0,0.0,0.0,1.21846967915e-07,-1.45732176304,-1.88445413113,9.80526733398,9e-08,0.0,0.0,0.0,9e-08,0.0,0.0,0.0,9e-08
2769870000000,1888,2769870000000,base_link,-0.00182384955157,0.00827249188803,-0.00643670885143,-0.999943463962,1.0,0.0,0.0,0.0,1.0,0.0,0.0,0.0,1.0,-0.667645871639,0.106843963265,0.0395839251578,1.21846967915e-07,0.0,0.0,0.0,1.21846967915e-07,0.0,0.0,0.0,1.21846967915e-07,-1.24037182331,-1.2451428175,6.84350633621,9e-08,0.0,0.0,0.0,9e-08,0.0,0.0,0.0,9e-08
2769890000000,1889,2769890000000,base_link,-0.0094758080383,0.0115325823128,-0.00749729214736,-0.999860518964,1.0,0.0,0.0,0.0,1.0,0.0,0.0,0.0,1.0,0.647057175636,-0.2807302773,0.0662738382816,1.21846967915e-07,0.0,0.0,0.0,1.21846967915e-07,0.0,0.0,0.0,1.21846967915e-07,-0.480727672577,0.633099555969,10.3729352951,9e-08,0.0,0.0,0.0,9e-08,0.0,0.0,0.0,9e-08
2769910000000,1890,2769910000000,base_link,-0.0256036240365,0.0184921685065,-0.00859745133404,-0.999464212147,1.0,0.0,0.0,0.0,1.0,0.0,0.0,0.0,1.0,2.20521116257,-0.982927441597,0.0947524160147,1.21846967915e-07,0.0,0.0,0.0,1.21846967915e-07,0.0,0.0,0.0,1.21846967915e-07,-0.231312006712,0.801359534264,10.8931484222,9e-08,0.0,0.0,0.0,9e-08,0.0,0.0,0.0,9e-08
2769930000000,1891,2769930000000,base_link,-0.0536182631518,0.0277137958985,-0.0104965461811,-0.998121708582,1.0,0.0,0.0,0.0,1.0,0.0,0.0,0.0,1.0,2.3723089695,-0.701453566551,0.108801968396,1.21846967915e-07,0.0,0.0,0.0,1.21846967915e-07,0.0,0.0,0.0,1.21846967915e-07,-0.702850162983,-0.22547532618,7.72773504257,9e-08,0.0,0.0,0.0,9e-08,0.0,0.0,0.0,9e-08
2769950000000,1892,2769950000000,base_link,-0.0775470112704,0.0292305016086,-0.0125992103065,-0.996480468154,1.0,0.0,0.0,0.0,1.0,0.0,0.0,0.0,1.0,2.41128587723,-0.086390465498,0.126798063517,1.21846967915e-07,0.0,0.0,0.0,1.21846967915e-07,0.0,0.0,0.0,1.21846967915e-07,-1.09963178635,-0.287339508533,4.90493249893,9e-08,0.0,0.0,0.0,9e-08,0.0,0.0,0.0,9e-08
2769970000000,1893,2769970000000,base_link,-0.0958453526769,0.026214470495,-0.0145917447167,-0.994944046938,1.0,0.0,0.0,0.0,1.0,0.0,0.0,0.0,1.0,2.24684047699,0.479082763195,0.126289978623,1.21846967915e-07,0.0,0.0,0.0,1.21846967915e-07,0.0,0.0,0.0,1.21846967915e-07,-1.09978783131,-0.357455015182,3.79952979088,9e-08,0.0,0.0,0.0,9e-08,0.0,0.0,0.0,9e-08
2769990000000,1894,2769990000000,base_link,-0.114832439442,0.0183224573063,-0.0174477416123,-0.993062653768,1.0,0.0,0.0,0.0,1.0,0.0,0.0,0.0,1.0,1.33955168724,0.664359688759,0.100140027702,1.21846967915e-07,0.0,0.0,0.0,1.21846967915e-07,0.0,0.0,0.0,1.21846967915e-07,-0.87079679966,-0.637401640415,3.40094137192,9e-08,0.0,0.0,0.0,9e-08,0.0,0.0,0.0,9e-08
2770010000000,1895,2770010000000,base_link,-0.114288871537,0.0162087928535,-0.0182817013038,-0.993147073905,1.0,0.0,0.0,0.0,1.0,0.0,0.0,0.0,1.0,-0.133516743779,0.254912495613,0.0465954691172,1.21846967915e-07,0.0,0.0,0.0,1.21846967915e-07,0.0,0.0,0.0,1.21846967915e-07,-0.335718393326,-1.85051941872,9.08359909058,9e-08,0.0,0.0,0.0,9e-08,0.0,0.0,0.0,9e-08
2770030000000,1896,2770030000000,base_link,-0.100940738074,0.0203025425911,-0.0179570019829,-0.994523168509,1.0,0.0,0.0,0.0,1.0,0.0,0.0,0.0,1.0,-1.52240657806,-0.495884120464,0.00402572751045,1.21846967915e-07,0.0,0.0,0.0,1.21846967915e-07,0.0,0.0,0.0,1.21846967915e-07,-0.221611768007,-1.68713963032,12.7358636856,9e-08,0.0,0.0,0.0,9e-08,0.0,0.0,0.0,9e-08
2770050000000,1897,2770050000000,base_link,-0.0884411997964,0.0281152248742,-0.0171692352373,-0.995536505188,1.0,0.0,0.0,0.0,1.0,0.0,0.0,0.0,1.0,-0.951938211918,-0.778168201447,-0.000476790824905,1.21846967915e-07,0.0,0.0,0.0,1.21846967915e-07,0.0,0.0,0.0,1.21846967915e-07,-0.412634968758,-0.679590344429,14.6317300797,9e-08,0.0,0.0,0.0,9e-08,0.0,0.0,0.0,9e-08
2770070000000,1898,2770070000000,base_link,-0.086161574225,0.0336946641928,-0.0168870199397,-0.995568031031,1.0,0.0,0.0,0.0,1.0,0.0,0.0,0.0,1.0,0.0156179666519,-0.421743571758,0.0116297211498,1.21846967915e-07,0.0,0.0,0.0,1.21846967915e-07,0.0,0.0,0.0,1.21846967915e-07,-0.957620620728,0.546001851559,15.0225429535,9e-08,0.0,0.0,0.0,9e-08,0.0,0.0,0.0,9e-08
2770090000000,1899,2770090000000,base_link,-0.0821483881883,0.0352169504091,-0.0170152306529,-0.995852353671,1.0,0.0,0.0,0.0,1.0,0.0,0.0,0.0,1.0,-0.522995889187,-0.0436991453171,0.0119621623307,1.21846967915e-07,0.0,0.0,0.0,1.21846967915e-07,0.0,0.0,0.0,1.21846967915e-07,-0.992340922356,-0.567168414593,14.1220674515,9e-08,0.0,0.0,0.0,9e-08,0.0,0.0,0.0,9e-08
2770110000000,1900,2770110000000,base_link,-0.0692557067415,0.0351677571343,-0.0167830436644,-0.996837620548,1.0,0.0,0.0,0.0,1.0,0.0,0.0,0.0,1.0,-1.67732727528,0.0350456163287,0.004290048033,1.21846967915e-07,0.0,0.0,0.0,1.21846967915e-07,0.0,0.0,0.0,1.21846967915e-07,-0.847137570381,-1.52903938293,13.127038002,9e-08,0.0,0.0,0.0,9e-08,0.0,0.0,0.0,9e-08
2770130000000,1901,2770130000000,base_link,-0.0457864191992,0.0359004267536,-0.0161430859166,-0.998175445814,1.0,0.0,0.0,0.0,1.0,0.0,0.0,0.0,1.0,-2.41363525391,-0.0791282653809,0.00473855203018,1.21846967915e-07,0.0,0.0,0.0,1.21846967915e-07,0.0,0.0,0.0,1.21846967915e-07,-0.591491818428,-1.21099019051,10.5913791656,9e-08,0.0,0.0,0.0,9e-08,0.0,0.0,0.0,9e-08
2770150000000,1902,2770150000000,base_link,-0.0263022195751,0.0373301545393,-0.0156319289379,-0.998834538231,1.0,0.0,0.0,0.0,1.0,0.0,0.0,0.0,1.0,-1.85074555874,-0.131055772305,0.00710100121796,1.21846967915e-07,0.0,0.0,0.0,1.21846967915e-07,0.0,0.0,0.0,1.21846967915e-07,-0.439205169678,0.0505793876946,8.98532485962,9e-08,0.0,0.0,0.0,9e-08,0.0,0.0,0.0,9e-08
2770170000000,1903,2770170000000,base_link,-0.0160154204783,0.0383365389637,-0.0155977056969,-0.999014842449,1.0,0.0,0.0,0.0,1.0,0.0,0.0,0.0,1.0,-0.773828923702,-0.0640957504511,0.0203109756112,1.21846967915e-07,0.0,0.0,0.0,1.21846967915e-07,0.0,0.0,0.0,1.21846967915e-07,-0.578474223614,0.467879652977,7.5108962059,9e-08,0.0,0.0,0.0,9e-08,0.0,0.0,0.0,9e-08
2770190000000,1904,2770190000000,base_link,-0.00865148227674,0.0380436170494,-0.015810505135,-0.999113508221,1.0,0.0,0.0,0.0,1.0,0.0,0.0,0.0,1.0,-0.588988721371,0.0497234091163,0.0268736984581,1.21846967915e-07,0.0,0.0,0.0,1.21846967915e-07,0.0,0.0,0.0,1.21846967915e-07,-0.499899297953,0.00241131708026,6.60252761841,9e-08,0.0,0.0,0.0,9e-08,0.0,0.0,0.0,9e-08
2770210000000,1905,2770210000000,base_link,-0.00111853126136,0.0367913656915,-0.0159072742992,-0.999195778869,1.0,0.0,0.0,0.0,1.0,0.0,0.0,0.0,1.0,-0.780476033688,0.138392671943,0.0220936369151,1.21846967915e-07,0.0,0.0,0.0,1.21846967915e-07,0.0,0.0,0.0,1.21846967915e-07,-0.53970938921,-0.305368840694,6.32423400879,9e-08,0.0,0.0,0.0,9e-08,0.0,0.0,0.0,9e-08
2770230000000,1906,2770230000000,base_link,0.00661746614798,0.0349136432479,-0.0159887441574,-0.999240580969,1.0,0.0,0.0,0.0,1.0,0.0,0.0,0.0,1.0,-0.800478219986,0.186272934079,0.0220751911402,1.21846967915e-07,0.0,0.0,0.0,1.21846967915e-07,0.0,0.0,0.0,1.21846967915e-07,-0.537391662598,-0.288540393114,6.22484731674,9e-08,0.0,0.0,0.0,9e-08,0.0,0.0,0.0,9e-08
2770250000000,1907,2770250000000,base_link,0.0104435175431,0.0330865246814,-0.0161909225897,-0.999266754162,1.0,0.0,0.0,0.0,1.0,0.0,0.0,0.0,1.0,-0.367645472288,0.234084904194,0.0338634178042,1.21846967915e-07,0.0,0.0,0.0,1.21846967915e-07,0.0,0.0,0.0,1.21846967915e-07,-0.468104541302,0.0501193590462,6.86562538147,9e-08,0.0,0.0,0.0,9e-08,0.0,0.0,0.0,9e-08
2770270000000,1908,2770270000000,base_link,0.0113932941401,0.0304542933071,-0.0165763133725,-0.999333767651,1.0,0.0,0.0,0.0,1.0,0.0,0.0,0.0,1.0,-0.0323461815715,0.259016305208,0.0325120128691,1.21846967915e-07,0.0,0.0,0.0,1.21846967915e-07,0.0,0.0,0.0,1.21846967915e-07,-0.519012153149,0.262915760279,7.38594007492,9e-08,0.0,0.0,0.0,9e-08,0.0,0.0,0.0,9e-08
2770290000000,1909,2770290000000,base_link,0.0109609860124,0.0269416590483,-0.0169770456081,-0.999432812745,1.0,0.0,0.0,0.0,1.0,0.0,0.0,0.0,1.0,0.0338862091303,0.287418067455,0.0203641485423,1.21846967915e-07,0.0,0.0,0.0,1.21846967915e-07,0.0,0.0,0.0,1.21846967915e-07,-0.377202868462,-0.0821924284101,8.2601852417,9e-08,0.0,0.0,0.0,9e-08,0.0,0.0,0.0,9e-08
2770310000000,1910,2770310000000,base_link,0.0118207685512,0.0244682870485,-0.017201604017,-0.999482714614,1.0,0.0,0.0,0.0,1.0,0.0,0.0,0.0,1.0,-0.136589214206,0.305166780949,0.0219348948449,1.21846967915e-07,0.0,0.0,0.0,1.21846967915e-07,0.0,0.0,0.0,1.21846967915e-07,-0.469478309155,-0.296305567026,8.84746742249,9e-08,0.0,0.0,0.0,9e-08,0.0,0.0,0.0,9e-08
2770330000000,1911,2770330000000,base_link,0.0133503909533,0.020650559656,-0.0175185904646,-0.999544122572,1.0,0.0,0.0,0.0,1.0,0.0,0.0,0.0,1.0,-0.10553856194,0.313546866179,0.0216908883303,1.21846967915e-07,0.0,0.0,0.0,1.21846967915e-07,0.0,0.0,0.0,1.21846967915e-07,-0.450566470623,-0.209921300411,9.25990581512,9e-08,0.0,0.0,0.0,9e-08,0.0,0.0,0.0,9e-08
2770350000000,1912,2770350000000,base_link,0.0124476369037,0.0173961250584,-0.0178034188669,-0.999612653348,1.0,0.0,0.0,0.0,1.0,0.0,0.0,0.0,1.0,0.0818300768733,0.315538227558,0.0220067743212,1.21846967915e-07,0.0,0.0,0.0,1.21846967915e-07,0.0,0.0,0.0,1.21846967915e-07,-0.400033503771,0.0445748008788,9.60211658478,9e-08,0.0,0.0,0.0,9e-08,0.0,0.0,0.0,9e-08
2770370000000,1913,2770370000000,base_link,0.0099607015212,0.0140939168434,-0.0180950750586,-0.999687337563,1.0,0.0,0.0,0.0,1.0,0.0,0.0,0.0,1.0,0.268478006124,0.31775277853,0.0175387337804,1.21846967915e-07,0.0,0.0,0.0,1.21846967915e-07,0.0,0.0,0.0,1.21846967915e-07,-0.364596664906,0.013595151715,9.73480319977,9e-08,0.0,0.0,0.0,9e-08,0.0,0.0,0.0,9e-08
2770386000000,1914,2770390000000,base_link,0.00852317722707,0.0115590940799,-0.0182760957729,-0.999729863734,1.0,0.0,0.0,0.0,1.0,0.0,0.0,0.0,1.0,0.147429868579,0.300451487303,0.0132308714092,1.21846967915e-07,0.0,0.0,0.0,1.21846967915e-07,0.0,0.0,0.0,1.21846967915e-07,-0.402166187763,-0.139673471451,9.67429733276,9e-08,0.0,0.0,0.0,9e-08,0.0,0.0,0.0,9e-08
2770410000000,1915,2770410000000,base_link,0.00840407582052,0.00858937018004,-0.0184642814515,-0.999757301332,1.0,0.0,0.0,0.0,1.0,0.0,0.0,0.0,1.0,-0.0439709499478,0.281000167131,0.00983634591103,1.21846967915e-07,0.0,0.0,0.0,1.21846967915e-07,0.0,0.0,0.0,1.21846967915e-07,-0.278548955917,-0.339313715696,9.49009037018,9e-08,0.0,0.0,0.0,9e-08,0.0,0.0,0.0,9e-08
2770430000000,1916,2770430000000,base_link,0.00937788864382,0.00532453106285,-0.0186701266597,-0.999767585163,1.0,0.0,0.0,0.0,1.0,0.0,0.0,0.0,1.0,-0.0780176073313,0.264010816813,0.0126309338957,1.21846967915e-07,0.0,0.0,0.0,1.21846967915e-07,0.0,0.0,0.0,1.21846967915e-07,-0.245301634073,-0.208281725645,9.29357242584,9e-08,0.0,0.0,0.0,9e-08,0.0,0.0,0.0,9e-08
2770446000000,1917,2770450000000,base_link,0.00916085789259,0.0028691618589,-0.0188327292012,-0.999776604589,1.0,0.0,0.0,0.0,1.0,0.0,0.0,0.0,1.0,0.0152338370681,0.239248082042,0.0108904670924,1.21846967915e-07,0.0,0.0,0.0,1.21846967915e-07,0.0,0.0,0.0,1.21846967915e-07,-0.318738281727,0.00134128797799,9.0994386673,9e-08,0.0,0.0,0.0,9e-08,0.0,0.0,0.0,9e-08
2770470000000,1918,2770470000000,base_link,0.0082045765222,0.00102124217629,-0.0189865651983,-0.999785624014,1.0,0.0,0.0,0.0,1.0,0.0,0.0,0.0,1.0,0.136395424604,0.213022232056,0.0146428989246,1.21846967915e-07,0.0,0.0,0.0,1.21846967915e-07,0.0,0.0,0.0,1.21846967915e-07,-0.280665785074,-0.0208683945239,8.95772838593,9e-08,0.0,0.0,0.0,9e-08,0.0,0.0,0.0,9e-08
2770490000000,1919,2770490000000,base_link,0.00696657771382,-0.00138723651841,-0.019216181229,-0.999790175874,1.0,0.0,0.0,0.0,1.0,0.0,0.0,0.0,1.0,0.0928562730551,0.187223896384,0.0101906629279,1.21846967915e-07,0.0,0.0,0.0,1.21846967915e-07,0.0,0.0,0.0,1.21846967915e-07,-0.235518366098,-0.132691130042,8.93060779572,9e-08,0.0,0.0,0.0,9e-08,0.0,0.0,0.0,9e-08
2770510000000,1920,2770510000000,base_link,0.00688430377281,-0.00275395805831,-0.0193596912481,-0.999785076105,1.0,0.0,0.0,0.0,1.0,0.0,0.0,0.0,1.0,0.0101991929114,0.163675859571,0.00873122643679,1.21846967915e-07,0.0,0.0,0.0,1.21846967915e-07,0.0,0.0,0.0,1.21846967915e-07,-0.255056023598,-0.234242558479,8.79519748688,9e-08,0.0,0.0,0.0,9e-08,0.0,0.0,0.0,9e-08
2770530000000,1921,2770530000000,base_link,0.00731339968504,-0.00440776005803,-0.0195824373425,-0.999771799848,1.0,0.0,0.0,0.0,1.0,0.0,0.0,0.0,1.0,-0.0343819521368,0.12678296864,0.00694948900491,1.21846967915e-07,0.0,0.0,0.0,1.21846967915e-07,0.0,0.0,0.0,1.21846967915e-07,-0.289488315582,-0.228915840387,8.75473976135,9e-08,0.0,0.0,0.0,9e-08,0.0,0.0,0.0,9e-08
2770550000000,1922,2770546000000,base_link,0.00723290364956,-0.00555887560774,-0.0197982292069,-0.999762358954,1.0,0.0,0.0,0.0,1.0,0.0,0.0,0.0,1.0,0.0210445784032,0.106105558574,0.0132226496935,1.21846967915e-07,0.0,0.0,0.0,1.21846967915e-07,0.0,0.0,0.0,1.21846967915e-07,-0.258313179016,-0.0776090845466,8.84470748901,9e-08,0.0,0.0,0.0,9e-08,0.0,0.0,0.0,9e-08
2770570000000,1923,2770570000000,base_link,0.00666126029413,-0.00649079022424,-0.019935627933,-0.999758059975,1.0,0.0,0.0,0.0,1.0,0.0,0.0,0.0,1.0,0.0631764307618,0.0815182998776,0.00332113821059,1.21846967915e-07,0.0,0.0,0.0,1.21846967915e-07,0.0,0.0,0.0,1.21846967915e-07,-0.157101586461,-0.11767718941,8.96775627136,9e-08,0.0,0.0,0.0,9e-08,0.0,0.0,0.0,9e-08
2770590000000,1924,2770590000000,base_link,0.00643808778189,-0.00710967554588,-0.0200837741056,-0.999752285857,1.0,0.0,0.0,0.0,1.0,0.0,0.0,0.0,1.0,0.0295492745936,0.0694824159145,0.00957249011844,1.21846967915e-07,0.0,0.0,0.0,1.21846967915e-07,0.0,0.0,0.0,1.21846967915e-07,-0.31375670433,-0.283102959394,9.06171989441,9e-08,0.0,0.0,0.0,9e-08,0.0,0.0,0.0,9e-08
2770610000000,1925,2770610000000,base_link,0.00682276492881,-0.0077251589192,-0.0203009568159,-0.999740864061,1.0,0.0,0.0,0.0,1.0,0.0,0.0,0.0,1.0,-0.0530841872096,0.0498608760536,0.0122187361121,1.21846967915e-07,0.0,0.0,0.0,1.21846967915e-07,0.0,0.0,0.0,1.21846967915e-07,-0.271512329578,-0.275317668915,9.20813369751,9e-08,0.0,0.0,0.0,9e-08,0.0,0.0,0.0,9e-08
2770630000000,1926,2770630000000,base_link,0.00738917432683,-0.00825454782612,-0.0205298984971,-0.999727882832,1.0,0.0,0.0,0.0,1.0,0.0,0.0,0.0,1.0,-0.0493155568838,0.0386186763644,0.0101752839983,1.21846967915e-07,0.0,0.0,0.0,1.21846967915e-07,0.0,0.0,0.0,1.21846967915e-07,-0.1961517483,-0.181637093425,9.30800247192,9e-08,0.0,0.0,0.0,9e-08,0.0,0.0,0.0,9e-08
2770650000000,1927,2770650000000,base_link,0.00744677832624,-0.00855572941137,-0.0207040914219,-0.99972135007,1.0,0.0,0.0,0.0,1.0,0.0,0.0,0.0,1.0,-0.00237629376352,0.0317504629493,0.0135742938146,1.21846967915e-07,0.0,0.0,0.0,1.21846967915e-07,0.0,0.0,0.0,1.21846967915e-07,-0.331299126148,-0.136912807822,9.22004890442,9e-08,0.0,0.0,0.0,9e-08,0.0,0.0,0.0,9e-08
2770670000000,1928,2770666000000,base_link,0.00712222265033,-0.00891415139715,-0.0208591075308,-0.999717303973,1.0,0.0,0.0,0.0,1.0,0.0,0.0,0.0,1.0,0.0413488782942,0.0247501116246,0.00559854833409,1.21846967915e-07,0.0,0.0,0.0,1.21846967915e-07,0.0,0.0,0.0,1.21846967915e-07,-0.21723203361,-0.100413993001,9.18733406067,9e-08,0.0,0.0,0.0,9e-08,0.0,0.0,0.0,9e-08
2770686000000,1929,2770690000000,base_link,0.00696440929139,-0.00917194761747,-0.021038484518,-0.999712330645,1.0,0.0,0.0,0.0,1.0,0.0,0.0,0.0,1.0,0.0130820134655,0.0188778992742,0.00879886001348,1.21846967915e-07,0.0,0.0,0.0,1.21846967915e-07,0.0,0.0,0.0,1.21846967915e-07,-0.175442785025,-0.267741262913,9.29194355011,9e-08,0.0,0.0,0.0,9e-08,0.0,0.0,0.0,9e-08
2770706000000,1930,2770710000000,base_link,0.00732411807314,-0.00938664769737,-0.0211891173546,-0.999704575625,1.0,0.0,0.0,0.0,1.0,0.0,0.0,0.0,1.0,-0.0470688603818,0.0174746066332,0.00437515834346,1.21846967915e-07,0.0,0.0,0.0,1.21846967915e-07,0.0,0.0,0.0,1.21846967915e-07,-0.35021173954,-0.242735922337,9.28279399872,9e-08,0.0,0.0,0.0,9e-08,0.0,0.0,0.0,9e-08
2770730000000,1931,2770730000000,base_link,0.0078353845349,-0.00965245321831,-0.0213780195296,-0.9996942075,1.0,0.0,0.0,0.0,1.0,0.0,0.0,0.0,1.0,-0.0411247871816,0.0166138391942,0.00451803393662,1.21846967915e-07,0.0,0.0,0.0,1.21846967915e-07,0.0,0.0,0.0,1.21846967915e-07,-0.244588166475,-0.169567808509,9.28822231293,9e-08,0.0,0.0,0.0,9e-08,0.0,0.0,0.0,9e-08
2770750000000,1932,2770750000000,base_link,0.00784714284709,-0.00980163133007,-0.02155735437,-0.999688770556,1.0,0.0,0.0,0.0,1.0,0.0,0.0,0.0,1.0,0.00847514718771,0.00771268690005,0.00966329313815,1.21846967915e-07,0.0,0.0,0.0,1.21846967915e-07,0.0,0.0,0.0,1.21846967915e-07,-0.230939015746,-0.0803196206689,9.26800632477,9e-08,0.0,0.0,0.0,9e-08,0.0,0.0,0.0,9e-08
2770770000000,1933,2770770000000,base_link,0.00762243750048,-0.00984109732621,-0.0217017916199,-0.999687042536,1.0,0.0,0.0,0.0,1.0,0.0,0.0,0.0,1.0,0.0321357324719,-0.00188952637836,0.00984811875969,1.21846967915e-07,0.0,0.0,0.0,1.21846967915e-07,0.0,0.0,0.0,1.21846967915e-07,-0.148313939571,-0.136096671224,9.20123386383,9e-08,0.0,0.0,0.0,9e-08,0.0,0.0,0.0,9e-08
2770790000000,1934,2770790000000,base_link,0.00747283199334,-0.00986089712538,-0.0218935176338,-0.999683797228,1.0,0.0,0.0,0.0,1.0,0.0,0.0,0.0,1.0,0.00827788095921,-0.00263661914505,0.00701758824289,1.21846967915e-07,0.0,0.0,0.0,1.21846967915e-07,0.0,0.0,0.0,1.21846967915e-07,-0.199860006571,-0.222795054317,9.20414352417,9e-08,0.0,0.0,0.0,9e-08,0.0,0.0,0.0,9e-08
2770810000000,1935,2770810000000,base_link,0.00760997026513,-0.0098348302874,-0.0220313378284,-0.999680004012,1.0,0.0,0.0,0.0,1.0,0.0,0.0,0.0,1.0,-0.0196967627853,-0.00874180812389,0.00963084213436,1.21846967915e-07,0.0,0.0,0.0,1.21846967915e-07,0.0,0.0,0.0,1.21846967915e-07,-0.250932186842,-0.241352334619,9.25328731537,9e-08,0.0,0.0,0.0,9e-08,0.0,0.0,0.0,9e-08
2770830000000,1936,2770830000000,base_link,0.00787029900067,-0.00975959470544,-0.0222102512003,-0.999674735656,1.0,0.0,0.0,0.0,1.0,0.0,0.0,0.0,1.0,-0.0189725961536,-0.0118250427768,0.00546901673079,1.21846967915e-07,0.0,0.0,0.0,1.21846967915e-07,0.0,0.0,0.0,1.21846967915e-07,-0.263256579638,-0.151201024652,9.18254470825,9e-08,0.0,0.0,0.0,9e-08,0.0,0.0,0.0,9e-08
2770850000000,1937,2770850000000,base_link,0.00788706784875,-0.00963864148202,-0.0223492936536,-0.99967267046,1.0,0.0,0.0,0.0,1.0,0.0,0.0,0.0,1.0,0.00431920960546,-0.0199502706528,0.00542627926916,1.21846967915e-07,0.0,0.0,0.0,1.21846967915e-07,0.0,0.0,0.0,1.21846967915e-07,-0.236021965742,-0.032821636647,9.29511260986,9e-08,0.0,0.0,0.0,9e-08,0.0,0.0,0.0,9e-08
2770870000000,1938,2770870000000,base_link,0.00777891113294,-0.0096130912722,-0.0225027924758,-0.999670310237,1.0,0.0,0.0,0.0,1.0,0.0,0.0,0.0,1.0,0.0130660776049,-0.00718497764319,0.00679745897651,1.21846967915e-07,0.0,0.0,0.0,1.21846967915e-07,0.0,0.0,0.0,1.21846967915e-07,-0.253592520952,-0.118459559977,9.33343887329,9e-08,0.0,0.0,0.0,9e-08,0.0,0.0,0.0,9e-08
2770890000000,1939,2770890000000,base_link,0.00774961932018,-0.00968481705888,-0.0226402333488,-0.999666812048,1.0,0.0,0.0,0.0,1.0,0.0,0.0,0.0,1.0,0.00288407178596,0.00361777003855,0.0061177155003,1.21846967915e-07,0.0,0.0,0.0,1.21846967915e-07,0.0,0.0,0.0,1.21846967915e-07,-0.183730974793,-0.122157648206,9.37327194214,9e-08,0.0,0.0,0.0,9e-08,0.0,0.0,0.0,9e-08
2770910000000,1940,2770910000000,base_link,0.00781731242724,-0.00978133597615,-0.0227636814681,-0.999662470923,1.0,0.0,0.0,0.0,1.0,0.0,0.0,0.0,1.0,-0.00711681693792,0.000690711836796,0.00683626998216,1.21846967915e-07,0.0,0.0,0.0,1.21846967915e-07,0.0,0.0,0.0,1.21846967915e-07,-0.256794631481,-0.163541972637,9.4109621048,9e-08,0.0,0.0,0.0,9e-08,0.0,0.0,0.0,9e-08
2770930000000,1941,2770930000000,base_link,0.00795195522694,-0.00981061412411,-0.0228950110481,-0.999658087651,1.0,0.0,0.0,0.0,1.0,0.0,0.0,0.0,1.0,-0.0120720490813,-0.00375807285309,0.00468483148143,1.21846967915e-07,0.0,0.0,0.0,1.21846967915e-07,0.0,0.0,0.0,1.21846967915e-07,-0.225275307894,-0.176952034235,9.36027622223,9e-08,0.0,0.0,0.0,9e-08,0.0,0.0,0.0,9e-08
2770950000000,1942,2770950000000,base_link,0.00792347432942,-0.00999063006418,-0.0230921318586,-0.999652060651,1.0,0.0,0.0,0.0,1.0,0.0,0.0,0.0,1.0,0.00832562241703,0.0121823512018,0.010464428924,1.21846967915e-07,0.0,0.0,0.0,1.21846967915e-07,0.0,0.0,0.0,1.21846967915e-07,-0.20651473105,-0.144378691912,9.32466697693,9e-08,0.0,0.0,0.0,9e-08,0.0,0.0,0.0,9e-08
2770966000000,1943,2770970000000,base_link,0.00776414911693,-0.0100839309214,-0.0232013343431,-0.999649826868,1.0,0.0,0.0,0.0,1.0,0.0,0.0,0.0,1.0,0.0228416509926,0.0049420571886,0.00546921975911,1.21846967915e-07,0.0,0.0,0.0,1.21846967915e-07,0.0,0.0,0.0,1.21846967915e-07,-0.214334860444,-0.102805264294,9.35672950745,9e-08,0.0,0.0,0.0,9e-08,0.0,0.0,0.0,9e-08
2770990000000,1944,2770990000000,base_link,0.00759649652681,-0.0100730981935,-0.0233222536514,-0.999648436022,1.0,0.0,0.0,0.0,1.0,0.0,0.0,0.0,1.0,0.0114610698074,-0.0109738940373,0.00603797612712,1.21846967915e-07,0.0,0.0,0.0,1.21846967915e-07,0.0,0.0,0.0,1.21846967915e-07,-0.205898031592,-0.176598504186,9.32847881317,9e-08,0.0,0.0,0.0,9e-08,0.0,0.0,0.0,9e-08
2771010000000,1945,2771010000000,base_link,0.00759178324145,-0.0100163969351,-0.0234708212924,-0.99964552789,1.0,0.0,0.0,0.0,1.0,0.0,0.0,0.0,1.0,0.00128824566491,-0.0128696626052,0.00736902048811,1.21846967915e-07,0.0,0.0,0.0,1.21846967915e-07,0.0,0.0,0.0,1.21846967915e-07,-0.250439882278,-0.117287755013,9.34130764008,9e-08,0.0,0.0,0.0,9e-08,0.0,0.0,0.0,9e-08
2771030000000,1946,2771026000000,base_link,0.00769746382992,-0.0099008579354,-0.0235877787971,-0.999643125519,1.0,0.0,0.0,0.0,1.0,0.0,0.0,0.0,1.0,-0.00798642169684,-0.014537400566,0.00567032489926,1.21846967915e-07,0.0,0.0,0.0,1.21846967915e-07,0.0,0.0,0.0,1.21846967915e-07,-0.184399411082,-0.207927763462,9.34767055511,9e-08,0.0,0.0,0.0,9e-08,0.0,0.0,0.0,9e-08
2771050000000,1947,2771050000000,base_link,0.00769071959329,-0.00986452677576,-0.0237229015934,-0.999640343827,1.0,0.0,0.0,0.0,1.0,0.0,0.0,0.0,1.0,0.0057883374393,-0.00928647816181,0.00663478672504,1.21846967915e-07,0.0,0.0,0.0,1.21846967915e-07,0.0,0.0,0.0,1.21846967915e-07,-0.116332657635,-0.209288686514,9.36379909515,9e-08,0.0,0.0,0.0,9e-08,0.0,0.0,0.0,9e-08
2771070000000,1948,2771070000000,base_link,0.007526318649,-0.00986244898552,-0.0238588673267,-0.999638405072,1.0,0.0,0.0,0.0,1.0,0.0,0.0,0.0,1.0,0.0215246900916,-0.00525758415461,0.00611856253818,1.21846967915e-07,0.0,0.0,0.0,1.21846967915e-07,0.0,0.0,0.0,1.21846967915e-07,-0.283275336027,-0.240022778511,9.34743404388,9e-08,0.0,0.0,0.0,9e-08,0.0,0.0,0.0,9e-08
2771090000000,1949,2771090000000,base_link,0.00742787307746,-0.00982326534034,-0.0239799973693,-0.999636634905,1.0,0.0,0.0,0.0,1.0,0.0,0.0,0.0,1.0,0.0112926121801,-0.0123565057293,0.00437413714826,1.21846967915e-07,0.0,0.0,0.0,1.21846967915e-07,0.0,0.0,0.0,1.21846967915e-07,-0.222936958075,-0.136513292789,9.41331291199,9e-08,0.0,0.0,0.0,9e-08,0.0,0.0,0.0,9e-08
2771110000000,1950,2771110000000,base_link,0.00761630554561,-0.0097240669701,-0.0241485847633,-0.999632083045,1.0,0.0,0.0,0.0,1.0,0.0,0.0,0.0,1.0,-0.0155504886061,-0.0144072333351,0.00292502436787,1.21846967915e-07,0.0,0.0,0.0,1.21846967915e-07,0.0,0.0,0.0,1.21846967915e-07,-0.207381546497,-0.157280683517,9.39230442047,9e-08,0.0,0.0,0.0,9e-08,0.0,0.0,0.0,9e-08
2771130000000,1951,2771130000000,base_link,0.00789565576304,-0.0096967628093,-0.0243296054777,-0.999625803165,1.0,0.0,0.0,0.0,1.0,0.0,0.0,0.0,1.0,-0.0269536562264,-0.00706513645127,0.0104187671095,1.21846967915e-07,0.0,0.0,0.0,1.21846967915e-07,0.0,0.0,0.0,1.21846967915e-07,-0.19843159616,-0.188301727176,9.417345047,9e-08,0.0,0.0,0.0,9e-08,0.0,0.0,0.0,9e-08
2771150000000,1952,2771150000000,base_link,0.00800263516591,-0.00982858613301,-0.0244123397413,-0.999621630627,1.0,0.0,0.0,0.0,1.0,0.0,0.0,0.0,1.0,-0.0035384548828,0.0572240464389,0.00111599534284,1.21846967915e-07,0.0,0.0,0.0,1.21846967915e-07,0.0,0.0,0.0,1.21846967915e-07,-0.117409400642,-0.0851003453135,9.44330215454,9e-08,0.0,0.0,0.0,9e-08,0.0,0.0,0.0,9e-08
2771170000000,1953,2771170000000,base_link,0.00799038327461,-0.0178855479281,-0.0244517891915,-0.999509098541,1.0,0.0,0.0,0.0,1.0,0.0,0.0,0.0,1.0,0.0347147770226,1.35329794884,0.00373256392777,1.21846967915e-07,0.0,0.0,0.0,1.21846967915e-07,0.0,0.0,0.0,1.21846967915e-07,-0.864197194576,-0.0750600323081,10.6243858337,9e-08,0.0,0.0,0.0,9e-08,0.0,0.0,0.0,9e-08
2771190000000,1954,2771190000000,base_link,0.00811061835525,-0.0452081532423,-0.024336475414,-0.998648207013,1.0,0.0,0.0,0.0,1.0,0.0,0.0,0.0,1.0,0.0666275322437,3.4063038826,0.00481510860845,1.21846967915e-07,0.0,0.0,0.0,1.21846967915e-07,0.0,0.0,0.0,1.21846967915e-07,-2.08171343803,-0.153199359775,12.5616865158,9e-08,0.0,0.0,0.0,9e-08,0.0,0.0,0.0,9e-08
2771210000000,1955,2771210000000,base_link,0.00862839765756,-0.0974056448138,-0.0240154850157,-0.994917620864,1.0,0.0,0.0,0.0,1.0,0.0,0.0,0.0,1.0,0.063456222415,4.4855890274,0.00461252266541,1.21846967915e-07,0.0,0.0,0.0,1.21846967915e-07,0.0,0.0,0.0,1.21846967915e-07,-2.02589344978,-0.105647139251,15.2634372711,9e-08,0.0,0.0,0.0,9e-08,0.0,0.0,0.0,9e-08
2771230000000,1956,2771230000000,base_link,0.009164052492,-0.132778493781,-0.023790336551,-0.990817828322,1.0,0.0,0.0,0.0,1.0,0.0,0.0,0.0,1.0,0.0313552208245,4.30058002472,0.0095278006047,1.21846967915e-07,0.0,0.0,0.0,1.21846967915e-07,0.0,0.0,0.0,1.21846967915e-07,-0.9498873353,-0.126550525427,16.3869800568,9e-08,0.0,0.0,0.0,9e-08,0.0,0.0,0.0,9e-08
2771250000000,1957,2771250000000,base_link,0.00996304610429,-0.175390638231,-0.0235758512389,-0.984166170543,1.0,0.0,0.0,0.0,1.0,0.0,0.0,0.0,1.0,0.0116119030863,3.35890007019,0.0110859815031,1.21846967915e-07,0.0,0.0,0.0,1.21846967915e-07,0.0,0.0,0.0,1.21846967915e-07,0.0508732683957,-0.180712178349,14.4768686295,9e-08,0.0,0.0,0.0,9e-08,0.0,0.0,0.0,9e-08
2771270000000,1958,2771270000000,base_link,0.0104316611078,-0.202922408477,-0.0234374409884,-0.978858702204,1.0,0.0,0.0,0.0,1.0,0.0,0.0,0.0,1.0,0.0216260906309,2.71548557281,0.0103059755638,1.21846967915e-07,0.0,0.0,0.0,1.21846967915e-07,0.0,0.0,0.0,1.21846967915e-07,0.0276079811156,-0.152672991157,11.9418649673,9e-08,0.0,0.0,0.0,9e-08,0.0,0.0,0.0,9e-08
2771290000000,1959,2771290000000,base_link,0.0106544914959,-0.222959315287,-0.0232863866834,-0.974491361468,1.0,0.0,0.0,0.0,1.0,0.0,0.0,0.0,1.0,0.0324452966452,2.54279994965,0.00693085417151,1.21846967915e-07,0.0,0.0,0.0,1.21846967915e-07,0.0,0.0,0.0,1.21846967915e-07,-0.250230044127,-0.192336663604,8.72559738159,9e-08,0.0,0.0,0.0,9e-08,0.0,0.0,0.0,9e-08
2771310000000,1960,2771310000000,base_link,0.0107771809719,-0.250306803705,-0.0230558012752,-0.967832032963,1.0,0.0,0.0,0.0,1.0,0.0,0.0,0.0,1.0,0.043180346489,2.25056481361,0.00966500118375,1.21846967915e-07,0.0,0.0,0.0,1.21846967915e-07,0.0,0.0,0.0,1.21846967915e-07,-0.375527650118,-0.152052357793,6.18676328659,9e-08,0.0,0.0,0.0,9e-08,0.0,0.0,0.0,9e-08
2771330000000,1961,2771330000000,base_link,0.0106447555739,-0.265860760973,-0.0229288128206,-0.963679936181,1.0,0.0,0.0,0.0,1.0,0.0,0.0,0.0,1.0,0.0496361777186,1.66972994804,0.0135893635452,1.21846967915e-07,0.0,0.0,0.0,1.21846967915e-07,0.0,0.0,0.0,1.21846967915e-07,0.154380470514,-0.186490908265,4.65775299072,9e-08,0.0,0.0,0.0,9e-08,0.0,0.0,0.0,9e-08
2771350000000,1962,2771350000000,base_link,0.0103559548312,-0.271429192062,-0.0229075286621,-0.962130070121,1.0,0.0,0.0,0.0,1.0,0.0,0.0,0.0,1.0,0.0540925264359,0.44006690383,0.0109553243965,1.21846967915e-07,0.0,0.0,0.0,1.21846967915e-07,0.0,0.0,0.0,1.21846967915e-07,0.440971344709,-0.123546019197,4.85861730576,9e-08,0.0,0.0,0.0,9e-08,0.0,0.0,0.0,9e-08
2771370000000,1963,2771370000000,base_link,0.00949170209232,-0.264211618011,-0.0229934239394,-0.964143930837,1.0,0.0,0.0,0.0,1.0,0.0,0.0,0.0,1.0,0.062220774591,-0.678313434124,0.00822691433132,1.21846967915e-07,0.0,0.0,0.0,1.21846967915e-07,0.0,0.0,0.0,1.21846967915e-07,0.733599185944,-0.233497947454,5.88952159882,9e-08,0.0,0.0,0.0,9e-08,0.0,0.0,0.0,9e-08
2771390000000,1964,2771386000000,base_link,0.00903038376194,-0.247144841763,-0.0232425539609,-0.968657731872,1.0,0.0,0.0,0.0,1.0,0.0,0.0,0.0,1.0,-0.0191506426781,-2.587890625,0.00489487871528,1.21846967915e-07,0.0,0.0,0.0,1.21846967915e-07,0.0,0.0,0.0,1.21846967915e-07,1.05244541168,-0.204110041261,7.45581817627,9e-08,0.0,0.0,0.0,9e-08,0.0,0.0,0.0,9e-08
2771410000000,1965,2771410000000,base_link,0.00929474986923,-0.214321761226,-0.0239111294188,-0.976426196842,1.0,0.0,0.0,0.0,1.0,0.0,0.0,0.0,1.0,-0.125491976738,-3.54694390297,0.00182263785973,1.21846967915e-07,0.0,0.0,0.0,1.21846967915e-07,0.0,0.0,0.0,1.21846967915e-07,0.78583073616,-0.288633078337,7.56139850616,9e-08,0.0,0.0,0.0,9e-08,0.0,0.0,0.0,9e-08
2771430000000,1966,2771426000000,base_link,0.0102055485339,-0.178393991046,-0.0246585194835,-0.983597188089,1.0,0.0,0.0,0.0,1.0,0.0,0.0,0.0,1.0,-0.186881184578,-3.64290714264,-0.00418955460191,1.21846967915e-07,0.0,0.0,0.0,1.21846967915e-07,0.0,0.0,0.0,1.21846967915e-07,0.0931358858943,-0.238516360521,8.50007820129,9e-08,0.0,0.0,0.0,9e-08,0.0,0.0,0.0,9e-08
2771450000000,1967,2771450000000,base_link,0.0116616747348,-0.158238256465,-0.0250980689666,-0.98701306372,1.0,0.0,0.0,0.0,1.0,0.0,0.0,0.0,1.0,-0.192540556192,-1.75957965851,-0.0215666517615,1.21846967915e-07,0.0,0.0,0.0,1.21846967915e-07,0.0,0.0,0.0,1.21846967915e-07,-1.99173498154,-0.153341442347,10.8950538635,9e-08,0.0,0.0,0.0,9e-08,0.0,0.0,0.0,9e-08
2771470000000,1968,2771470000000,base_link,0.0138613082218,-0.164813575765,-0.0251982520255,-0.985905402394,1.0,0.0,0.0,0.0,1.0,0.0,0.0,0.0,1.0,-0.152326732874,1.13817989826,-0.0185415744781,1.21846967915e-07,0.0,0.0,0.0,1.21846967915e-07,0.0,0.0,0.0,1.21846967915e-07,-2.88940191269,-0.163508117199,11.4928188324,9e-08,0.0,0.0,0.0,9e-08,0.0,0.0,0.0,9e-08
2771490000000,1969,2771490000000,base_link,0.0148961292566,-0.184280815233,-0.0249711648057,-0.982443460257,1.0,0.0,0.0,0.0,1.0,0.0,0.0,0.0,1.0,-0.022131325677,2.78444266319,-0.00939586665481,1.21846967915e-07,0.0,0.0,0.0,1.21846967915e-07,0.0,0.0,0.0,1.21846967915e-07,-2.87202119827,-0.119544312358,14.3010387421,9e-08,0.0,0.0,0.0,9e-08,0.0,0.0,0.0,9e-08
2771510000000,1970,2771510000000,base_link,0.0144669268248,-0.219167869088,-0.0242791978469,-0.975277737367,1.0,0.0,0.0,0.0,1.0,0.0,0.0,0.0,1.0,0.156834647059,2.95690631866,0.00321397907101,1.21846967915e-07,0.0,0.0,0.0,1.21846967915e-07,0.0,0.0,0.0,1.21846967915e-07,-2.06105828285,-0.00753289181739,15.9573802948,9e-08,0.0,0.0,0.0,9e-08,0.0,0.0,0.0,9e-08
2771530000000,1971,2771530000000,base_link,0.0135886497221,-0.238015960816,-0.0238043714516,-0.970874403222,1.0,0.0,0.0,0.0,1.0,0.0,0.0,0.0,1.0,0.171829044819,2.22213697433,0.00847520399839,1.21846967915e-07,0.0,0.0,0.0,1.21846967915e-07,0.0,0.0,0.0,1.21846967915e-07,-0.979312419891,-0.138088002801,16.0449142456,9e-08,0.0,0.0,0.0,9e-08,0.0,0.0,0.0,9e-08
2771550000000,1972,2771550000000,base_link,0.0130789994932,-0.255340749534,-0.0235002819396,-0.966477011783,1.0,0.0,0.0,0.0,1.0,0.0,0.0,0.0,1.0,0.0552518069744,1.59782099724,0.010991897434,1.21846967915e-07,0.0,0.0,0.0,1.21846967915e-07,0.0,0.0,0.0,1.21846967915e-07,-0.812090277672,-0.251030385494,13.3001995087,9e-08,0.0,0.0,0.0,9e-08,0.0,0.0,0.0,9e-08
2771570000000,1973,2771570000000,base_link,0.0136939641598,-0.272391636421,-0.0234739823061,-0.961802673402,1.0,0.0,0.0,0.0,1.0,0.0,0.0,0.0,1.0,-0.0297120921314,1.44350886345,0.00512619316578,1.21846967915e-07,0.0,0.0,0.0,1.21846967915e-07,0.0,0.0,0.0,1.21846967915e-07,-0.917941689491,-0.32898080349,10.586107254,9e-08,0.0,0.0,0.0,9e-08,0.0,0.0,0.0,9e-08
2771590000000,1974,2771590000000,base_link,0.0141601188411,-0.283930273968,-0.0234615489858,-0.958453305498,1.0,0.0,0.0,0.0,1.0,0.0,0.0,0.0,1.0,-0.00990834552795,1.51567542553,0.00782463420182,1.21846967915e-07,0.0,0.0,0.0,1.21846967915e-07,0.0,0.0,0.0,1.21846967915e-07,-1.10312902927,-0.279567450285,7.528444767,9e-08,0.0,0.0,0.0,9e-08,0.0,0.0,0.0,9e-08
2771610000000,1975,2771610000000,base_link,0.0141007023214,-0.301719626324,-0.023267294161,-0.953008480579,1.0,0.0,0.0,0.0,1.0,0.0,0.0,0.0,1.0,0.0620120726526,1.54846560955,0.0140896849334,1.21846967915e-07,0.0,0.0,0.0,1.21846967915e-07,0.0,0.0,0.0,1.21846967915e-07,-0.954494833946,-0.251754909754,6.00748968124,9e-08,0.0,0.0,0.0,9e-08,0.0,0.0,0.0,9e-08
2771630000000,1976,2771630000000,base_link,0.0137548136723,-0.312899973513,-0.0230354864942,-0.949407116667,1.0,0.0,0.0,0.0,1.0,0.0,0.0,0.0,1.0,0.0837086737156,1.42085552216,0.0121390428394,1.21846967915e-07,0.0,0.0,0.0,1.21846967915e-07,0.0,0.0,0.0,1.21846967915e-07,-0.875313580036,-0.141582503915,5.73862838745,9e-08,0.0,0.0,0.0,9e-08,0.0,0.0,0.0,9e-08
2771650000000,1977,2771650000000,base_link,0.0134043942371,-0.326901883621,-0.0228525691716,-0.944686838222,1.0,0.0,0.0,0.0,1.0,0.0,0.0,0.0,1.0,0.0511281453073,1.15921854973,0.0152069861069,1.21846967915e-07,0.0,0.0,0.0,1.21846967915e-07,0.0,0.0,0.0,1.21846967915e-07,-0.700576722622,-0.23268251121,6.00962495804,9e-08,0.0,0.0,0.0,9e-08,0.0,0.0,0.0,9e-08
2771670000000,1978,2771670000000,base_link,0.0134338127374,-0.335583818313,-0.0228618414783,-0.941637092263,1.0,0.0,0.0,0.0,1.0,0.0,0.0,0.0,1.0,0.0137223359197,0.874748587608,0.011794809252,1.21846967915e-07,0.0,0.0,0.0,1.21846967915e-07,0.0,0.0,0.0,1.21846967915e-07,-0.694500386715,-0.297933846712,6.95913934708,9e-08,0.0,0.0,0.0,9e-08,0.0,0.0,0.0,9e-08
2771690000000,1979,2771690000000,base_link,0.0134248986789,-0.342332139889,-0.0229112375848,-0.939203701818,1.0,0.0,0.0,0.0,1.0,0.0,0.0,0.0,1.0,0.0142409428954,0.715151667595,0.0155496997759,1.21846967915e-07,0.0,0.0,0.0,1.21846967915e-07,0.0,0.0,0.0,1.21846967915e-07,-1.02369737625,-0.22392603755,9.10488414764,9e-08,0.0,0.0,0.0,9e-08,0.0,0.0,0.0,9e-08
2771710000000,1980,2771710000000,base_link,0.01326754342,-0.346950739063,-0.0228910070975,-0.937510072857,1.0,0.0,0.0,0.0,1.0,0.0,0.0,0.0,1.0,0.0370478034019,0.60333442688,0.0117611140013,1.21846967915e-07,0.0,0.0,0.0,1.21846967915e-07,0.0,0.0,0.0,1.21846967915e-07,-1.17359173298,-0.325316488743,10.9677610397,9e-08,0.0,0.0,0.0,9e-08,0.0,0.0,0.0,9e-08
2771730000000,1981,2771730000000,base_link,0.0130786939285,-0.351913435644,-0.0228512626193,-0.935662228578,1.0,0.0,0.0,0.0,1.0,0.0,0.0,0.0,1.0,0.0324138402939,0.509215950966,0.00793559476733,1.21846967915e-07,0.0,0.0,0.0,1.21846967915e-07,0.0,0.0,0.0,1.21846967915e-07,-1.2558324337,-0.285486161709,12.5367355347,9e-08,0.0,0.0,0.0,9e-08,0.0,0.0,0.0,9e-08
2771750000000,1982,2771746000000,base_link,0.013399199638,-0.35656115829,-0.0230232639081,-0.933892187381,1.0,0.0,0.0,0.0,1.0,0.0,0.0,0.0,1.0,-0.0301093570888,0.381242483854,0.00656291749328,1.21846967915e-07,0.0,0.0,0.0,1.21846967915e-07,0.0,0.0,0.0,1.21846967915e-07,-1.25045239925,-0.278343528509,13.4140977859,9e-08,0.0,0.0,0.0,9e-08,0.0,0.0,0.0,9e-08
2771770000000,1983,2771770000000,base_link,0.0139058890508,-0.359418967501,-0.0232761028523,-0.932782334419,1.0,0.0,0.0,0.0,1.0,0.0,0.0,0.0,1.0,-0.0463731586933,0.288013398647,0.0068043069914,1.21846967915e-07,0.0,0.0,0.0,1.21846967915e-07,0.0,0.0,0.0,1.21846967915e-07,-1.42048764229,-0.359484642744,13.6798963547,9e-08,0.0,0.0,0.0,9e-08,0.0,0.0,0.0,9e-08
2771790000000,1984,2771790000000,base_link,0.0141908965772,-0.360259575857,-0.0234196550184,-0.932450132959,1.0,0.0,0.0,0.0,1.0,0.0,0.0,0.0,1.0,-0.0177772138268,0.03899076581,-0.000208424331504,1.21846967915e-07,0.0,0.0,0.0,1.21846967915e-07,0.0,0.0,0.0,1.21846967915e-07,-1.38398003578,-0.300495564938,13.6838293076,9e-08,0.0,0.0,0.0,9e-08,0.0,0.0,0.0,9e-08
2771810000000,1985,2771810000000,base_link,0.0139201873692,-0.355798331942,-0.0234562384829,-0.934164666757,1.0,0.0,0.0,0.0,1.0,0.0,0.0,0.0,1.0,0.0286402162164,-0.574183285236,-0.00295898132026,1.21846967915e-07,0.0,0.0,0.0,1.21846967915e-07,0.0,0.0,0.0,1.21846967915e-07,-1.25511670113,-0.254168599844,16.3020038605,9e-08,0.0,0.0,0.0,9e-08,0.0,0.0,0.0,9e-08
2771830000000,1986,2771830000000,base_link,0.0134911956716,-0.345408396215,-0.0235525440317,-0.938059920643,1.0,0.0,0.0,0.0,1.0,0.0,0.0,0.0,1.0,0.0206849742681,-1.20159864426,-0.00410658819601,1.21846967915e-07,0.0,0.0,0.0,1.21846967915e-07,0.0,0.0,0.0,1.21846967915e-07,-1.1605130434,-0.31820371747,16.5747756958,9e-08,0.0,0.0,0.0,9e-08,0.0,0.0,0.0,9e-08
2771850000000,1987,2771850000000,base_link,0.0135190968853,-0.331509861789,-0.0238537254112,-0.943053226373,1.0,0.0,0.0,0.0,1.0,0.0,0.0,0.0,1.0,-0.041336003691,-1.51818668842,-0.00784444343299,1.21846967915e-07,0.0,0.0,0.0,1.21846967915e-07,0.0,0.0,0.0,1.21846967915e-07,-1.52093756199,-0.356899708509,15.8804512024,9e-08,0.0,0.0,0.0,9e-08,0.0,0.0,0.0,9e-08
2771870000000,1988,2771870000000,base_link,0.0138868702854,-0.319966619699,-0.0242017740862,-0.947017896119,1.0,0.0,0.0,0.0,1.0,0.0,0.0,0.0,1.0,-0.0831228122115,-1.51769423485,-0.0116076311097,1.21846967915e-07,0.0,0.0,0.0,1.21846967915e-07,0.0,0.0,0.0,1.21846967915e-07,-2.04729199409,-0.334015160799,14.467675209,9e-08,0.0,0.0,0.0,9e-08,0.0,0.0,0.0,9e-08
2771890000000,1989,2771890000000,base_link,0.0143738981934,-0.303645273686,-0.0246573815186,-0.952357648944,1.0,0.0,0.0,0.0,1.0,0.0,0.0,0.0,1.0,-0.0626646131277,-1.40963840485,-0.00902146007866,1.21846967915e-07,0.0,0.0,0.0,1.21846967915e-07,0.0,0.0,0.0,1.21846967915e-07,-2.33878540993,-0.259255170822,12.7079601288,9e-08,0.0,0.0,0.0,9e-08,0.0,0.0,0.0,9e-08
2771910000000,1990,2771910000000,base_link,0.0145440871677,-0.291208750215,-0.0249519879897,-0.956223526477,1.0,0.0,0.0,0.0,1.0,0.0,0.0,0.0,1.0,-0.0413202494383,-1.29044604301,-0.00789343193173,1.21846967915e-07,0.0,0.0,0.0,1.21846967915e-07,0.0,0.0,0.0,1.21846967915e-07,-2.51179981232,-0.217187449336,10.9107265472,9e-08,0.0,0.0,0.0,9e-08,0.0,0.0,0.0,9e-08
2771930000000,1991,2771930000000,base_link,0.0146849313987,-0.28198372177,-0.0251290469003,-0.958977612293,1.0,0.0,0.0,0.0,1.0,0.0,0.0,0.0,1.0,-0.0423043556511,-1.17518019676,-0.0132157951593,1.21846967915e-07,0.0,0.0,0.0,1.21846967915e-07,0.0,0.0,0.0,1.21846967915e-07,-2.54270243645,-0.21952354908,9.33799552917,9e-08,0.0,0.0,0.0,9e-08,0.0,0.0,0.0,9e-08
2771950000000,1992,2771950000000,base_link,0.0152678223136,-0.269902833406,-0.0254693405551,-0.962429607774,1.0,0.0,0.0,0.0,1.0,0.0,0.0,0.0,1.0,-0.0701577067375,-1.0103366375,-0.0115835405886,1.21846967915e-07,0.0,0.0,0.0,1.21846967915e-07,0.0,0.0,0.0,1.21846967915e-07,-2.7186691761,-0.364482372999,8.59498882294,9e-08,0.0,0.0,0.0,9e-08,0.0,0.0,0.0,9e-08
2771970000000,1993,2771970000000,base_link,0.0158778136521,-0.263386488085,-0.0256631317646,-0.964218320024,1.0,0.0,0.0,0.0,1.0,0.0,0.0,0.0,1.0,-0.0885798335075,-0.839894473553,-0.0189453493804,1.21846967915e-07,0.0,0.0,0.0,1.21846967915e-07,0.0,0.0,0.0,1.21846967915e-07,-2.70988798141,-0.168701261282,8.1928396225,9e-08,0.0,0.0,0.0,9e-08,0.0,0.0,0.0,9e-08
2771990000000,1994,2771990000000,base_link,0.0166167743471,-0.257148206596,-0.0259245686659,-0.965881223932,1.0,0.0,0.0,0.0,1.0,0.0,0.0,0.0,1.0,-0.0737374201417,-0.578812897205,-0.0105155743659,1.21846967915e-07,0.0,0.0,0.0,1.21846967915e-07,0.0,0.0,0.0,1.21846967915e-07,-2.90450906754,-0.193781137466,8.05185031891,9e-08,0.0,0.0,0.0,9e-08,0.0,0.0,0.0,9e-08
2772010000000,1995,2772010000000,base_link,0.0170698529685,-0.25272837196,-0.0260568676234,-0.967035752554,1.0,0.0,0.0,0.0,1.0,0.0,0.0,0.0,1.0,-0.0360205620527,-0.408596664667,-0.00998399592936,1.21846967915e-07,0.0,0.0,0.0,1.21846967915e-07,0.0,0.0,0.0,1.21846967915e-07,-2.92438316345,-0.212104991078,8.07190132141,9e-08,0.0,0.0,0.0,9e-08,0.0,0.0,0.0,9e-08
2772026000000,1996,2772030000000,base_link,0.0172496092774,-0.249382375803,-0.0261731086316,-0.967897739899,1.0,0.0,0.0,0.0,1.0,0.0,0.0,0.0,1.0,-0.0132214147598,-0.327634781599,-0.00489269103855,1.21846967915e-07,0.0,0.0,0.0,1.21846967915e-07,0.0,0.0,0.0,1.21846967915e-07,-3.05728006363,-0.176199436188,8.38218402863,9e-08,0.0,0.0,0.0,9e-08,0.0,0.0,0.0,9e-08
2772050000000,1997,2772050000000,base_link,0.0173127241831,-0.246049002628,-0.0263052390016,-0.968745692345,1.0,0.0,0.0,0.0,1.0,0.0,0.0,0.0,1.0,-0.00538041675463,-0.282458096743,0.00296263070777,1.21846967915e-07,0.0,0.0,0.0,1.21846967915e-07,0.0,0.0,0.0,1.21846967915e-07,-3.10825324059,-0.202959224582,8.61242675781,9e-08,0.0,0.0,0.0,9e-08,0.0,0.0,0.0,9e-08
2772070000000,1998,2772070000000,base_link,0.0173407202272,-0.243857882804,-0.0264136828429,-0.969296172333,1.0,0.0,0.0,0.0,1.0,0.0,0.0,0.0,1.0,-0.00280972267501,-0.312634110451,0.00323791662231,1.21846967915e-07,0.0,0.0,0.0,1.21846967915e-07,0.0,0.0,0.0,1.21846967915e-07,-3.07144594193,-0.128677308559,8.82111930847,9e-08,0.0,0.0,0.0,9e-08,0.0,0.0,0.0,9e-08
2772090000000,1999,2772086000000,base_link,0.0171278470321,-0.238330544893,-0.0264999995886,-0.970671424,1.0,0.0,0.0,0.0,1.0,0.0,0.0,0.0,1.0,0.0237082857639,-0.74666261673,-0.00368085224181,1.21846967915e-07,0.0,0.0,0.0,1.21846967915e-07,0.0,0.0,0.0,1.21846967915e-07,-3.4537191391,-0.138920560479,13.5758018494,9e-08,0.0,0.0,0.0,9e-08,0.0,0.0,0.0,9e-08
2772106000000,2000,2772110000000,base_link,0.0161535488718,-0.225048292223,-0.0266436781952,-0.973849338524,1.0,0.0,0.0,0.0,1.0,0.0,0.0,0.0,1.0,0.0689231976867,-1.26365542412,0.00132663722616,1.21846967915e-07,0.0,0.0,0.0,1.21846967915e-07,0.0,0.0,0.0,1.21846967915e-07,-3.66383504868,-0.183171078563,15.5192480087,9e-08,0.0,0.0,0.0,9e-08,0.0,0.0,0.0,9e-08
2772126000000,2001,2772126000000,base_link,0.0152888641277,-0.214343898858,-0.0267275082769,-0.976272824461,1.0,0.0,0.0,0.0,1.0,0.0,0.0,0.0,1.0,0.0813354700804,-1.39191019535,-0.000232143560424,1.21846967915e-07,0.0,0.0,0.0,1.21846967915e-07,0.0,0.0,0.0,1.21846967915e-07,-4.2088098526,-0.183758303523,16.3745689392,9e-08,0.0,0.0,0.0,9e-08,0.0,0.0,0.0,9e-08
2772150000000,2002,2772150000000,base_link,0.0143168629707,-0.202300110258,-0.0269046514812,-0.978849303457,1.0,0.0,0.0,0.0,1.0,0.0,0.0,0.0,1.0,0.0673395767808,-1.14684891701,0.00435692165047,1.21846967915e-07,0.0,0.0,0.0,1.21846967915e-07,0.0,0.0,0.0,1.21846967915e-07,-4.61683893204,-0.155015274882,15.8117895126,9e-08,0.0,0.0,0.0,9e-08,0.0,0.0,0.0,9e-08
2772170000000,2003,2772170000000,base_link,0.01368319564,-0.193338794644,-0.0270991170402,-0.980662292293,1.0,0.0,0.0,0.0,1.0,0.0,0.0,0.0,1.0,0.0432553328574,-0.871165215969,0.00632413383573,1.21846967915e-07,0.0,0.0,0.0,1.21846967915e-07,0.0,0.0,0.0,1.21846967915e-07,-4.62340641022,-0.197701111436,13.6681432724,9e-08,0.0,0.0,0.0,9e-08,0.0,0.0,0.0,9e-08
2772190000000,2004,2772190000000,base_link,0.0132510271237,-0.187525938176,-0.0272294350958,-0.981792755063,1.0,0.0,0.0,0.0,1.0,0.0,0.0,0.0,1.0,0.0324807502329,-0.498538255692,0.00169885682408,1.21846967915e-07,0.0,0.0,0.0,1.21846967915e-07,0.0,0.0,0.0,1.21846967915e-07,-4.38909435272,-0.179849237204,11.0449228287,9e-08,0.0,0.0,0.0,9e-08,0.0,0.0,0.0,9e-08
2772210000000,2005,2772210000000,base_link,0.0128654782903,-0.183006795028,-0.0273296603016,-0.982647493151,1.0,0.0,0.0,0.0,1.0,0.0,0.0,0.0,1.0,0.0297470092773,-0.320025056601,-0.00165179546457,1.21846967915e-07,0.0,0.0,0.0,1.21846967915e-07,0.0,0.0,0.0,1.21846967915e-07,-4.21425962448,-0.107048891485,9.09732151031,9e-08,0.0,0.0,0.0,9e-08,0.0,0.0,0.0,9e-08
2772230000000,2006,2772230000000,base_link,0.012170323976,-0.169012740039,-0.0275795489664,-0.985152828267,1.0,0.0,0.0,0.0,1.0,0.0,0.0,0.0,1.0,0.0407425612211,-1.62873101234,0.00454074097797,1.21846967915e-07,0.0,0.0,0.0,1.21846967915e-07,0.0,0.0,0.0,1.21846967915e-07,-3.1875910759,-0.194661796093,9.34079647064,9e-08,0.0,0.0,0.0,9e-08,0.0,0.0,0.0,9e-08
2772250000000,2007,2772250000000,base_link,0.011202200329,-0.14506453193,-0.0279170609293,-0.988964842128,1.0,0.0,0.0,0.0,1.0,0.0,0.0,0.0,1.0,0.0446980260313,-3.46723914146,0.00475856103003,1.21846967915e-07,0.0,0.0,0.0,1.21846967915e-07,0.0,0.0,0.0,1.21846967915e-07,-2.30043387413,-0.0925465524197,10.2378902435,9e-08,0.0,0.0,0.0,9e-08,0.0,0.0,0.0,9e-08
2772270000000,2008,2772270000000,base_link,0.00963578636231,-0.102230241978,-0.028452410199,-0.994307123764,1.0,0.0,0.0,0.0,1.0,0.0,0.0,0.0,1.0,0.0416518226266,-4.50709295273,0.00460651097819,1.21846967915e-07,0.0,0.0,0.0,1.21846967915e-07,0.0,0.0,0.0,1.21846967915e-07,-3.01612305641,-0.155495733023,11.306593895,9e-08,0.0,0.0,0.0,9e-08,0.0,0.0,0.0,9e-08
2772290000000,2009,2772290000000,base_link,0.00819036809516,-0.0543747635212,-0.0289986755026,-0.998065821861,1.0,0.0,0.0,0.0,1.0,0.0,0.0,0.0,1.0,0.00243851030245,-4.80743360519,0.00257865851745,1.21846967915e-07,0.0,0.0,0.0,1.21846967915e-07,0.0,0.0,0.0,1.21846967915e-07,-4.7215681076,-0.134102508426,16.5644645691,9e-08,0.0,0.0,0.0,9e-08,0.0,0.0,0.0,9e-08
2772310000000,2010,2772310000000,base_link,0.00712799783871,-0.00859121590537,-0.029448171642,-0.999503998772,1.0,0.0,0.0,0.0,1.0,0.0,0.0,0.0,1.0,-0.0320868864655,-4.45471763611,0.0019365013577,1.21846967915e-07,0.0,0.0,0.0,1.21846967915e-07,0.0,0.0,0.0,1.21846967915e-07,-5.35238361359,-0.102024026215,17.1495761871,9e-08,0.0,0.0,0.0,9e-08,0.0,0.0,0.0,9e-08
2772330000000,2011,2772330000000,base_link,0.00624592850747,0.0332380030892,-0.02977451469,-0.998984285983,1.0,0.0,0.0,0.0,1.0,0.0,0.0,0.0,1.0,-0.0282040759921,-4.13229417801,-0.00336641981266,1.21846967915e-07,0.0,0.0,0.0,1.21846967915e-07,0.0,0.0,0.0,1.21846967915e-07,-5.3361158371,-0.0974768251181,17.4341831207,9e-08,0.0,0.0,0.0,9e-08,0.0,0.0,0.0,9e-08
2772350000000,2012,2772350000000,base_link,0.00497071765386,0.0728586748674,-0.030176806359,-0.996873276782,1.0,0.0,0.0,0.0,1.0,0.0,0.0,0.0,1.0,0.0274314619601,-3.95405721664,0.00726255215704,1.21846967915e-07,0.0,0.0,0.0,1.21846967915e-07,0.0,0.0,0.0,1.21846967915e-07,-4.91477108002,-0.00401032343507,16.5757350922,9e-08,0.0,0.0,0.0,9e-08,0.0,0.0,0.0,9e-08
2772370000000,2013,2772370000000,base_link,0.00289268045892,0.120550486575,-0.0307103854612,-0.992227851139,1.0,0.0,0.0,0.0,1.0,0.0,0.0,0.0,1.0,0.0679497718811,-4.00043296814,0.00993780139834,1.21846967915e-07,0.0,0.0,0.0,1.21846967915e-07,0.0,0.0,0.0,1.21846967915e-07,-3.56996583939,-0.158524632454,12.0073032379,9e-08,0.0,0.0,0.0,9e-08,0.0,0.0,0.0,9e-08
2772390000000,2014,2772390000000,base_link,0.00147585619431,0.15268990835,-0.0310073943026,-0.987786542684,1.0,0.0,0.0,0.0,1.0,0.0,0.0,0.0,1.0,0.0610907524824,-4.06393814087,0.00948634650558,1.21846967915e-07,0.0,0.0,0.0,1.21846967915e-07,0.0,0.0,0.0,1.21846967915e-07,-2.80342531204,-0.146387055516,8.45094585419,9e-08,0.0,0.0,0.0,9e-08,0.0,0.0,0.0,9e-08
2772410000000,2015,2772410000000,base_link,-0.000376940339657,0.199250385374,-0.0313717959548,-0.979446271419,1.0,0.0,0.0,0.0,1.0,0.0,0.0,0.0,1.0,0.0411967523396,-3.90435838699,0.00895264931023,1.21846967915e-07,0.0,0.0,0.0,1.21846967915e-07,0.0,0.0,0.0,1.21846967915e-07,-2.31925153732,-0.0713411793113,6.02402639389,9e-08,0.0,0.0,0.0,9e-08,0.0,0.0,0.0,9e-08
2772426000000,2016,2772426000000,base_link,-0.00162573038761,0.234350870869,-0.0315841317776,-0.971637556208,1.0,0.0,0.0,0.0,1.0,0.0,0.0,0.0,1.0,0.0221327021718,-3.54809761047,0.0117812594399,1.21846967915e-07,0.0,0.0,0.0,1.21846967915e-07,0.0,0.0,0.0,1.21846967915e-07,-2.19605135918,-0.136563435197,4.99467372894,9e-08,0.0,0.0,0.0,9e-08,0.0,0.0,0.0,9e-08
2772450000000,2017,2772450000000,base_link,-0.00254704995935,0.258942113446,-0.0317791873925,-0.965366610912,1.0,0.0,0.0,0.0,1.0,0.0,0.0,0.0,1.0,0.0276561491191,-3.15971374512,0.0150149408728,1.21846967915e-07,0.0,0.0,0.0,1.21846967915e-07,0.0,0.0,0.0,1.21846967915e-07,-2.10029101372,-0.192199826241,4.85422468185,9e-08,0.0,0.0,0.0,9e-08,0.0,0.0,0.0,9e-08
2772470000000,2018,2772470000000,base_link,-0.00375459931603,0.289025669903,-0.032029455379,-0.956778010416,1.0,0.0,0.0,0.0,1.0,0.0,0.0,0.0,1.0,0.0315292477608,-2.59207296371,0.0102607980371,1.21846967915e-07,0.0,0.0,0.0,1.21846967915e-07,0.0,0.0,0.0,1.21846967915e-07,-2.10433912277,-0.162544921041,5.39346599579,9e-08,0.0,0.0,0.0,9e-08,0.0,0.0,0.0,9e-08
2772490000000,2019,2772490000000,base_link,-0.00430482642334,0.304126358888,-0.032218652582,-0.95207699308,1.0,0.0,0.0,0.0,1.0,0.0,0.0,0.0,1.0,0.0169774666429,-1.95567464828,0.0175205431879,1.21846967915e-07,0.0,0.0,0.0,1.21846967915e-07,0.0,0.0,0.0,1.21846967915e-07,-2.1869366169,-0.316567331553,7.42198991776,9e-08,0.0,0.0,0.0,9e-08,0.0,0.0,0.0,9e-08
2772510000000,2020,2772510000000,base_link,-0.00464018889694,0.317974064215,-0.0323392347156,-0.947536386649,1.0,0.0,0.0,0.0,1.0,0.0,0.0,0.0,1.0,-0.0164222661406,-1.28743910789,0.0127448765561,1.21846967915e-07,0.0,0.0,0.0,1.21846967915e-07,0.0,0.0,0.0,1.21846967915e-07,-2.24784874916,-0.321818381548,8.7356262207,9e-08,0.0,0.0,0.0,9e-08,0.0,0.0,0.0,9e-08
2772530000000,2021,2772530000000,base_link,-0.00462469993012,0.329406944782,-0.0324723344632,-0.943618162731,1.0,0.0,0.0,0.0,1.0,0.0,0.0,0.0,1.0,-0.0299383848906,-0.989268898964,0.0156719330698,1.21846967915e-07,0.0,0.0,0.0,1.21846967915e-07,0.0,0.0,0.0,1.21846967915e-07,-2.21872544289,-0.227390095592,10.9348287582,9e-08,0.0,0.0,0.0,9e-08,0.0,0.0,0.0,9e-08
2772550000000,2022,2772550000000,base_link,-0.00458467096074,0.334895465446,-0.0326099860704,-0.94167966058,1.0,0.0,0.0,0.0,1.0,0.0,0.0,0.0,1.0,-0.0181246995926,-0.656779408455,0.0181342195719,1.21846967915e-07,0.0,0.0,0.0,1.21846967915e-07,0.0,0.0,0.0,1.21846967915e-07,-1.97915387154,-0.127861201763,12.6357984543,9e-08,0.0,0.0,0.0,9e-08,0.0,0.0,0.0,9e-08
2772570000000,2023,2772570000000,base_link,-0.0044846354158,0.338172656872,-0.0328411615345,-0.940500265319,1.0,0.0,0.0,0.0,1.0,0.0,0.0,0.0,1.0,-0.0139448232949,-0.159622490406,0.015799516812,1.21846967915e-07,0.0,0.0,0.0,1.21846967915e-07,0.0,0.0,0.0,1.21846967915e-07,-2.02427005768,-0.16203917563,13.1905622482,9e-08,0.0,0.0,0.0,9e-08,0.0,0.0,0.0,9e-08
2772590000000,2024,2772590000000,base_link,-0.00414608031843,0.333374923056,-0.0331244305033,-0.942203124439,1.0,0.0,0.0,0.0,1.0,0.0,0.0,0.0,1.0,-0.00553502235562,0.904174566269,0.0233077388257,1.21846967915e-07,0.0,0.0,0.0,1.21846967915e-07,0.0,0.0,0.0,1.21846967915e-07,-2.5085477829,-0.295125931501,14.0428686142,9e-08,0.0,0.0,0.0,9e-08,0.0,0.0,0.0,9e-08
2772610000000,2025,2772610000000,base_link,-0.00349034911258,0.313113573741,-0.0335936092209,-0.949114954714,1.0,0.0,0.0,0.0,1.0,0.0,0.0,0.0,1.0,0.0144319534302,2.04641437531,0.0215272027999,1.21846967915e-07,0.0,0.0,0.0,1.21846967915e-07,0.0,0.0,0.0,1.21846967915e-07,-2.72134327888,-0.139121606946,15.9369945526,9e-08,0.0,0.0,0.0,9e-08,0.0,0.0,0.0,9e-08
2772630000000,2026,2772626000000,base_link,-0.00303850328641,0.288943588915,-0.0340996242842,-0.956733840519,1.0,0.0,0.0,0.0,1.0,0.0,0.0,0.0,1.0,0.0503535158932,2.60069179535,0.0185351707041,1.21846967915e-07,0.0,0.0,0.0,1.21846967915e-07,0.0,0.0,0.0,1.21846967915e-07,-2.53421568871,-0.122139692307,18.7544307709,9e-08,0.0,0.0,0.0,9e-08,0.0,0.0,0.0,9e-08
2772650000000,2027,2772650000000,base_link,-0.00277341014599,0.268643169471,-0.0344864902066,-0.962618257067,1.0,0.0,0.0,0.0,1.0,0.0,0.0,0.0,1.0,0.0579622015357,2.63814091682,0.0116286287084,1.21846967915e-07,0.0,0.0,0.0,1.21846967915e-07,0.0,0.0,0.0,1.21846967915e-07,-1.95701348782,-0.13082678616,20.6655464172,9e-08,0.0,0.0,0.0,9e-08,0.0,0.0,0.0,9e-08
2772670000000,2028,2772670000000,base_link,-0.00201167961614,0.237904514012,-0.0348385428323,-0.97066151949,1.0,0.0,0.0,0.0,1.0,0.0,0.0,0.0,1.0,0.0170299280435,2.65016412735,0.00736807566136,1.21846967915e-07,0.0,0.0,0.0,1.21846967915e-07,0.0,0.0,0.0,1.21846967915e-07,-1.78703463078,-0.144057512283,19.5849723816,9e-08,0.0,0.0,0.0,9e-08,0.0,0.0,0.0,9e-08
2772690000000,2029,2772690000000,base_link,-0.00127700736303,0.215869541018,-0.0349570176234,-0.975795469254,1.0,0.0,0.0,0.0,1.0,0.0,0.0,0.0,1.0,0.000748384511098,2.89353179932,0.00250316620804,1.21846967915e-07,0.0,0.0,0.0,1.21846967915e-07,0.0,0.0,0.0,1.21846967915e-07,-1.65306544304,-0.119911581278,17.0482559204,9e-08,0.0,0.0,0.0,9e-08,0.0,0.0,0.0,9e-08
2772710000000,2030,2772710000000,base_link,-0.000433322286253,0.18522185953,-0.0351306626393,-0.982068521893,1.0,0.0,0.0,0.0,1.0,0.0,0.0,0.0,1.0,0.0355780906975,3.23545742035,0.00670454651117,1.21846967915e-07,0.0,0.0,0.0,1.21846967915e-07,0.0,0.0,0.0,1.21846967915e-07,-1.60716307163,-0.128082200885,14.5813970566,9e-08,0.0,0.0,0.0,9e-08,0.0,0.0,0.0,9e-08
2772726000000,2031,2772726000000,base_link,0.000285339432775,0.145448452841,-0.0353647040891,-0.98873358237,1.0,0.0,0.0,0.0,1.0,0.0,0.0,0.0,1.0,0.0593489855528,3.38465428352,0.00624650344253,1.21846967915e-07,0.0,0.0,0.0,1.21846967915e-07,0.0,0.0,0.0,1.21846967915e-07,-1.26998221874,-0.0318828001618,12.121717453,9e-08,0.0,0.0,0.0,9e-08,0.0,0.0,0.0,9e-08
2772750000000,2032,2772750000000,base_link,0.000893365674461,0.112824521432,-0.0354900909634,-0.992980593854,1.0,0.0,0.0,0.0,1.0,0.0,0.0,0.0,1.0,0.0479571670294,3.26425600052,0.0039381836541,1.21846967915e-07,0.0,0.0,0.0,1.21846967915e-07,0.0,0.0,0.0,1.21846967915e-07,-0.950175404549,-0.0844138637185,10.1089229584,9e-08,0.0,0.0,0.0,9e-08,0.0,0.0,0.0,9e-08
2772770000000,2033,2772770000000,base_link,0.00143082755503,0.0890227367437,-0.0355644380042,-0.995393500931,1.0,0.0,0.0,0.0,1.0,0.0,0.0,0.0,1.0,0.0272459387779,2.84915661812,0.00528155267239,1.21846967915e-07,0.0,0.0,0.0,1.21846967915e-07,0.0,0.0,0.0,1.21846967915e-07,-0.595276415348,-0.180531859398,8.44641780853,9e-08,0.0,0.0,0.0,9e-08,0.0,0.0,0.0,9e-08
2772790000000,2034,2772790000000,base_link,0.00203537404753,0.0628839066709,-0.0356619658116,-0.997381399188,1.0,0.0,0.0,0.0,1.0,0.0,0.0,0.0,1.0,0.0243447758257,1.95474529266,0.00665939040482,1.21846967915e-07,0.0,0.0,0.0,1.21846967915e-07,0.0,0.0,0.0,1.21846967915e-07,-0.16554543376,-0.0406003221869,15.2497682571,9e-08,0.0,0.0,0.0,9e-08,0.0,0.0,0.0,9e-08
2772810000000,2035,2772810000000,base_link,0.00198624399306,0.0502990552689,-0.0357559111369,-0.9980920372,1.0,0.0,0.0,0.0,1.0,0.0,0.0,0.0,1.0,0.047069825232,1.14727759361,0.00529547501355,1.21846967915e-07,0.0,0.0,0.0,1.21846967915e-07,0.0,0.0,0.0,1.21846967915e-07,-0.0201158896089,-0.0526524558663,17.1299037933,9e-08,0.0,0.0,0.0,9e-08,0.0,0.0,0.0,9e-08
2772830000000,2036,2772830000000,base_link,0.00183775274322,0.041206823641,-0.0359058696239,-0.998503559029,1.0,0.0,0.0,0.0,1.0,0.0,0.0,0.0,1.0,0.0410433337092,0.874169588089,0.0126872444525,1.21846967915e-07,0.0,0.0,0.0,1.21846967915e-07,0.0,0.0,0.0,1.21846967915e-07,-0.23014652729,-0.078329063952,16.6016159058,9e-08,0.0,0.0,0.0,9e-08,0.0,0.0,0.0,9e-08
2772850000000,2037,2772850000000,base_link,0.00203248172006,0.0314929128266,-0.0359970754041,-0.998853546459,1.0,0.0,0.0,0.0,1.0,0.0,0.0,0.0,1.0,0.00635842233896,0.985723495483,0.00706911319867,1.21846967915e-07,0.0,0.0,0.0,1.21846967915e-07,0.0,0.0,0.0,1.21846967915e-07,-0.564116120338,-0.00680330395698,14.7914209366,9e-08,0.0,0.0,0.0,9e-08,0.0,0.0,0.0,9e-08
2772870000000,2038,2772870000000,base_link,0.00237725479468,0.0231428200294,-0.0360570925164,-0.999078947805,1.0,0.0,0.0,0.0,1.0,0.0,0.0,0.0,1.0,-0.0109003577381,1.04296898842,0.00845283549279,1.21846967915e-07,0.0,0.0,0.0,1.21846967915e-07,0.0,0.0,0.0,1.21846967915e-07,-0.513107001781,-0.0216214526445,12.7597770691,9e-08,0.0,0.0,0.0,9e-08,0.0,0.0,0.0,9e-08
2772890000000,2039,2772890000000,base_link,0.00271578717227,0.0133038848694,-0.0360910207295,-0.999256259597,1.0,0.0,0.0,0.0,1.0,0.0,0.0,0.0,1.0,0.0014351317659,0.965582489967,0.00133757223375,1.21846967915e-07,0.0,0.0,0.0,1.21846967915e-07,0.0,0.0,0.0,1.21846967915e-07,-0.385816693306,-0.0288110356778,9.77410125732,9e-08,0.0,0.0,0.0,9e-08,0.0,0.0,0.0,9e-08
2772910000000,2040,2772910000000,base_link,0.00282627258378,0.00525475143983,-0.0361381409061,-0.999329005057,1.0,0.0,0.0,0.0,1.0,0.0,0.0,0.0,1.0,0.0198841281235,0.770177721977,0.00494955247268,1.21846967915e-07,0.0,0.0,0.0,1.21846967915e-07,0.0,0.0,0.0,1.21846967915e-07,-0.173798948526,-0.0816600546241,7.47184085846,9e-08,0.0,0.0,0.0,9e-08,0.0,0.0,0.0,9e-08
2772930000000,2041,2772930000000,base_link,0.00269354034517,-0.00173255309805,-0.0362146374361,-0.999338909567,1.0,0.0,0.0,0.0,1.0,0.0,0.0,0.0,1.0,0.0338483974338,0.528002977371,0.00348160834983,1.21846967915e-07,0.0,0.0,0.0,1.21846967915e-07,0.0,0.0,0.0,1.21846967915e-07,-0.17193505168,-0.155393004417,6.0274772644,9e-08,0.0,0.0,0.0,9e-08,0.0,0.0,0.0,9e-08
2772950000000,2042,2772950000000,base_link,0.00257731024412,-0.00494514620597,-0.0363135560896,-0.999324874666,1.0,0.0,0.0,0.0,1.0,0.0,0.0,0.0,1.0,0.0285146217793,0.352754831314,0.0106865558773,1.21846967915e-07,0.0,0.0,0.0,1.21846967915e-07,0.0,0.0,0.0,1.21846967915e-07,-0.139359027147,-0.110325694084,5.26900672913,9e-08,0.0,0.0,0.0,9e-08,0.0,0.0,0.0,9e-08
2772970000000,2043,2772970000000,base_link,0.00262301010489,-0.00772689533643,-0.0364279004896,-0.999303000452,1.0,0.0,0.0,0.0,1.0,0.0,0.0,0.0,1.0,-0.00459397956729,0.186294853687,0.00778533006087,1.21846967915e-07,0.0,0.0,0.0,1.21846967915e-07,0.0,0.0,0.0,1.21846967915e-07,-0.141738414764,-0.126128926873,5.08728694916,9e-08,0.0,0.0,0.0,9e-08,0.0,0.0,0.0,9e-08
2772990000000,2044,2772990000000,base_link,0.00286590601486,-0.00829010268526,-0.0365419498617,-0.999293643852,1.0,0.0,0.0,0.0,1.0,0.0,0.0,0.0,1.0,-0.0229192432016,0.0591220222414,0.00957668758929,1.21846967915e-07,0.0,0.0,0.0,1.21846967915e-07,0.0,0.0,0.0,1.21846967915e-07,-0.0805387496948,-0.21298378706,5.46001768112,9e-08,0.0,0.0,0.0,9e-08,0.0,0.0,0.0,9e-08
2773010000000,2045,2773010000000,base_link,0.00300560125034,-0.0079101368275,-0.0366489185632,-0.999292379446,1.0,0.0,0.0,0.0,1.0,0.0,0.0,0.0,1.0,-0.015087085776,-0.0736829191446,0.00968270003796,1.21846967915e-07,0.0,0.0,0.0,1.21846967915e-07,0.0,0.0,0.0,1.21846967915e-07,-0.176267892122,-0.0960352346301,6.04649829865,9e-08,0.0,0.0,0.0,9e-08,0.0,0.0,0.0,9e-08
2773030000000,2046,2773030000000,base_link,0.00282480114839,-0.00698593283082,-0.0367759070178,-0.999295203285,1.0,0.0,0.0,0.0,1.0,0.0,0.0,0.0,1.0,0.0224057659507,-0.0818173587322,0.00636012572795,1.21846967915e-07,0.0,0.0,0.0,1.21846967915e-07,0.0,0.0,0.0,1.21846967915e-07,-0.248047858477,-0.0343547575176,15.0619449615,9e-08,0.0,0.0,0.0,9e-08,0.0,0.0,0.0,9e-08
2773050000000,2047,2773050000000,base_link,0.00255318463071,-0.00640259394101,-0.0368765115452,-0.999296088369,1.0,0.0,0.0,0.0,1.0,0.0,0.0,0.0,1.0,0.0260565560311,-0.0626876726747,0.00943644996732,1.21846967915e-07,0.0,0.0,0.0,1.21846967915e-07,0.0,0.0,0.0,1.21846967915e-07,-0.187283158302,0.00417314656079,20.6844120026,9e-08,0.0,0.0,0.0,9e-08,0.0,0.0,0.0,9e-08
2773070000000,2048,2773070000000,base_link,0.00251023814453,-0.00605849669769,-0.0369262448264,-0.999296509837,1.0,0.0,0.0,0.0,1.0,0.0,0.0,0.0,1.0,-0.00223582261242,-0.0461048930883,0.00384053424932,1.21846967915e-07,0.0,0.0,0.0,1.21846967915e-07,0.0,0.0,0.0,1.21846967915e-07,-0.26161980629,-0.0736469700932,21.2993431091,9e-08,0.0,0.0,0.0,9e-08,0.0,0.0,0.0,9e-08
2773090000000,2049,2773090000000,base_link,0.00271552507155,-0.00545018316597,-0.0369593301025,-0.999298237858,1.0,0.0,0.0,0.0,1.0,0.0,0.0,0.0,1.0,-0.0252449810505,-0.0783835202456,0.000232662816416,1.21846967915e-07,0.0,0.0,0.0,1.21846967915e-07,0.0,0.0,0.0,1.21846967915e-07,-0.231259912252,-0.0338789187372,18.4463863373,9e-08,0.0,0.0,0.0,9e-08,0.0,0.0,0.0,9e-08
2773110000000,2050,2773106000000,base_link,0.00292841061438,-0.00438163559739,-0.0370142895929,-0.999300850963,1.0,0.0,0.0,0.0,1.0,0.0,0.0,0.0,1.0,-0.0225641150028,-0.131018728018,0.00229741167277,1.21846967915e-07,0.0,0.0,0.0,1.21846967915e-07,0.0,0.0,0.0,1.21846967915e-07,-0.238921970129,-0.0166990533471,15.1020622253,9e-08,0.0,0.0,0.0,9e-08,0.0,0.0,0.0,9e-08
2773130000000,2051,2773130000000,base_link,0.00295126558674,-0.00235556791563,-0.0370644864895,-0.999305782144,1.0,0.0,0.0,0.0,1.0,0.0,0.0,0.0,1.0,-0.00251906807534,-0.187880679965,0.0030097044073,1.21846967915e-07,0.0,0.0,0.0,1.21846967915e-07,0.0,0.0,0.0,1.21846967915e-07,-0.22048842907,-0.178313359618,9.76393127441,9e-08,0.0,0.0,0.0,9e-08,0.0,0.0,0.0,9e-08
2773150000000,2052,2773150000000,base_link,0.0028934920327,-0.000644275906446,-0.0371037673523,-0.999307046549,1.0,0.0,0.0,0.0,1.0,0.0,0.0,0.0,1.0,0.00184705341235,-0.22117485106,0.0036054556258,1.21846967915e-07,0.0,0.0,0.0,1.21846967915e-07,0.0,0.0,0.0,1.21846967915e-07,-0.190896332264,-0.144404530525,6.97458410263,9e-08,0.0,0.0,0.0,9e-08,0.0,0.0,0.0,9e-08
2773170000000,2053,2773170000000,base_link,0.00289402903459,0.00177913055169,-0.0371522362281,-0.999303927683,1.0,0.0,0.0,0.0,1.0,0.0,0.0,0.0,1.0,-0.0113984709606,-0.254818797112,0.000543288362678,1.21846967915e-07,0.0,0.0,0.0,1.21846967915e-07,0.0,0.0,0.0,1.21846967915e-07,-0.215361952782,-0.0399463623762,4.79871320724,9e-08,0.0,0.0,0.0,9e-08,0.0,0.0,0.0,9e-08
2773190000000,2054,2773190000000,base_link,0.00309725344137,0.00434510160604,-0.0372261618004,-0.999292632327,1.0,0.0,0.0,0.0,1.0,0.0,0.0,0.0,1.0,-0.0368663668633,-0.261363863945,0.00537154637277,1.21846967915e-07,0.0,0.0,0.0,1.21846967915e-07,0.0,0.0,0.0,1.21846967915e-07,-0.266893208027,-0.195030272007,3.99305772781,9e-08,0.0,0.0,0.0,9e-08,0.0,0.0,0.0,9e-08
2773210000000,2055,2773210000000,base_link,0.00352425361803,0.00673426165065,-0.037265231929,-0.999276574378,1.0,0.0,0.0,0.0,1.0,0.0,0.0,0.0,1.0,-0.0539571195841,-0.236169308424,0.000716627109796,1.21846967915e-07,0.0,0.0,0.0,1.21846967915e-07,0.0,0.0,0.0,1.21846967915e-07,-0.290320068598,-0.141657173634,3.8856048584,9e-08,0.0,0.0,0.0,9e-08,0.0,0.0,0.0,9e-08
2773230000000,2056,2773230000000,base_link,0.00403908099459,0.0084448563641,-0.0373169882589,-0.999259631345,1.0,0.0,0.0,0.0,1.0,0.0,0.0,0.0,1.0,-0.0573672764003,-0.162607938051,0.00340323825367,1.21846967915e-07,0.0,0.0,0.0,1.21846967915e-07,0.0,0.0,0.0,1.21846967915e-07,-0.298915207386,-0.0667722225189,4.07671642303,9e-08,0.0,0.0,0.0,9e-08,0.0,0.0,0.0,9e-08
2773250000000,2057,2773250000000,base_link,0.00466525293628,0.00914757192178,-0.0373652885473,-0.999248926045,1.0,0.0,0.0,0.0,1.0,0.0,0.0,0.0,1.0,-0.0513018742204,-0.0366686284542,0.00184028223157,1.21846967915e-07,0.0,0.0,0.0,1.21846967915e-07,0.0,0.0,0.0,1.21846967915e-07,-0.37085467577,-0.0985268801451,4.96375989914,9e-08,0.0,0.0,0.0,9e-08,0.0,0.0,0.0,9e-08
2773270000000,2058,2773270000000,base_link,0.00503342821317,0.00876769035771,-0.0373739286513,-0.999250232598,1.0,0.0,0.0,0.0,1.0,0.0,0.0,0.0,1.0,-0.0384545773268,0.0642757862806,-0.000467268691864,1.21846967915e-07,0.0,0.0,0.0,1.21846967915e-07,0.0,0.0,0.0,1.21846967915e-07,-0.2725867033,0.00400039553642,6.07254743576,9e-08,0.0,0.0,0.0,9e-08,0.0,0.0,0.0,9e-08
2773290000000,2059,2773290000000,base_link,0.00540193852458,0.00777931449145,-0.0374166655557,-0.999254953045,1.0,0.0,0.0,0.0,1.0,0.0,0.0,0.0,1.0,-0.0287641007453,0.106756940484,0.00288522266783,1.21846967915e-07,0.0,0.0,0.0,1.21846967915e-07,0.0,0.0,0.0,1.21846967915e-07,-0.359222203493,-0.0391083434224,13.9444284439,9e-08,0.0,0.0,0.0,9e-08,0.0,0.0,0.0,9e-08
2773310000000,2060,2773310000000,base_link,0.00566723836566,0.00633662399797,-0.0374270758272,-0.99926317168,1.0,0.0,0.0,0.0,1.0,0.0,0.0,0.0,1.0,-0.0131302457303,0.118524089456,-0.0017968211323,1.21846967915e-07,0.0,0.0,0.0,1.21846967915e-07,0.0,0.0,0.0,1.21846967915e-07,-0.149883210659,-0.0686713680625,20.7636394501,9e-08,0.0,0.0,0.0,9e-08,0.0,0.0,0.0,9e-08
2773330000000,2061,2773330000000,base_link,0.00554977551045,0.00480095969695,-0.0374465055244,-0.99927172749,1.0,0.0,0.0,0.0,1.0,0.0,0.0,0.0,1.0,0.0168027430773,0.145864576101,-0.00103226013016,1.21846967915e-07,0.0,0.0,0.0,1.21846967915e-07,0.0,0.0,0.0,1.21846967915e-07,-0.199870124459,-0.00689226016402,21.3880996704,9e-08,0.0,0.0,0.0,9e-08,0.0,0.0,0.0,9e-08
2773350000000,2062,2773350000000,base_link,0.00518034191964,0.000621011093023,-0.0374653451657,-0.999284329398,1.0,0.0,0.0,0.0,1.0,0.0,0.0,0.0,1.0,0.0699098408222,0.522179067135,0.00282415980473,1.21846967915e-07,0.0,0.0,0.0,1.21846967915e-07,0.0,0.0,0.0,1.21846967915e-07,-0.488648176193,-0.0438005998731,19.9166927338,9e-08,0.0,0.0,0.0,9e-08,0.0,0.0,0.0,9e-08
2773370000000,2063,2773370000000,base_link,0.00514086316421,-0.0181749815321,-0.0373369237183,-0.999124297814,1.0,0.0,0.0,0.0,1.0,0.0,0.0,0.0,1.0,0.0787802040577,2.4929792881,-0.00970427785069,1.21846967915e-07,0.0,0.0,0.0,1.21846967915e-07,0.0,0.0,0.0,1.21846967915e-07,-1.77316737175,0.0358180887997,14.3667430878,9e-08,0.0,0.0,0.0,9e-08,0.0,0.0,0.0,9e-08
2773390000000,2064,2773390000000,base_link,0.00591324762711,-0.0628964980419,-0.0369608052422,-0.997317883887,1.0,0.0,0.0,0.0,1.0,0.0,0.0,0.0,1.0,0.0719427540898,4.09018516541,-0.00823048688471,1.21846967915e-07,0.0,0.0,0.0,1.21846967915e-07,0.0,0.0,0.0,1.21846967915e-07,-1.97549724579,-0.139897480607,13.8742485046,9e-08,0.0,0.0,0.0,9e-08,0.0,0.0,0.0,9e-08
2773410000000,2065,2773410000000,base_link,0.00707285757779,-0.108575407875,-0.0364752314005,-0.993393632969,1.0,0.0,0.0,0.0,1.0,0.0,0.0,0.0,1.0,0.0514249056578,4.64133119583,-0.0171781368554,1.21846967915e-07,0.0,0.0,0.0,1.21846967915e-07,0.0,0.0,0.0,1.21846967915e-07,-1.42942488194,-0.0403648875654,12.1936979294,9e-08,0.0,0.0,0.0,9e-08,0.0,0.0,0.0,9e-08
2773430000000,2066,2773430000000,base_link,0.00813124396924,-0.14404395653,-0.0361037912246,-0.988879073291,1.0,0.0,0.0,0.0,1.0,0.0,0.0,0.0,1.0,0.0292144007981,4.38366365433,-0.0102245211601,1.21846967915e-07,0.0,0.0,0.0,1.21846967915e-07,0.0,0.0,0.0,1.21846967915e-07,-0.355729728937,-0.0852027386427,8.89465808868,9e-08,0.0,0.0,0.0,9e-08,0.0,0.0,0.0,9e-08
2773450000000,2067,2773450000000,base_link,0.00964761382167,-0.191861905852,-0.0354956543474,-0.980732382502,1.0,0.0,0.0,0.0,1.0,0.0,0.0,0.0,1.0,0.0210378337651,3.93003034592,-0.01620532386,1.21846967915e-07,0.0,0.0,0.0,1.21846967915e-07,0.0,0.0,0.0,1.21846967915e-07,-0.00802299659699,-0.169962361455,6.43769264221,9e-08,0.0,0.0,0.0,9e-08,0.0,0.0,0.0,9e-08
2773470000000,2068,2773466000000,base_link,0.0106495076311,-0.226830577079,-0.034999712381,-0.973246891472,1.0,0.0,0.0,0.0,1.0,0.0,0.0,0.0,1.0,0.029494907707,3.51636099815,-0.007793167606,1.21846967915e-07,0.0,0.0,0.0,1.21846967915e-07,0.0,0.0,0.0,1.21846967915e-07,0.091790355742,-0.101313687861,4.71160078049,9e-08,0.0,0.0,0.0,9e-08,0.0,0.0,0.0,9e-08
2773490000000,2069,2773490000000,base_link,0.0113593870005,-0.251864456396,-0.0346423071056,-0.967075581325,1.0,0.0,0.0,0.0,1.0,0.0,0.0,0.0,1.0,0.0252264365554,3.12412834167,-0.00435798056424,1.21846967915e-07,0.0,0.0,0.0,1.21846967915e-07,0.0,0.0,0.0,1.21846967915e-07,0.0205641314387,-0.0779548585415,3.71492648125,9e-08,0.0,0.0,0.0,9e-08,0.0,0.0,0.0,9e-08
2773510000000,2070,2773510000000,base_link,0.0121612307934,-0.27941869618,-0.0342730585658,-0.959480424196,1.0,0.0,0.0,0.0,1.0,0.0,0.0,0.0,1.0,0.0172020122409,2.70605421066,0.00170515675563,1.21846967915e-07,0.0,0.0,0.0,1.21846967915e-07,0.0,0.0,0.0,1.21846967915e-07,0.156000837684,-0.0952365770936,3.72508597374,9e-08,0.0,0.0,0.0,9e-08,0.0,0.0,0.0,9e-08
2773530000000,2071,2773530000000,base_link,0.0128412491207,-0.302229329237,-0.0339485278323,-0.952543980162,1.0,0.0,0.0,0.0,1.0,0.0,0.0,0.0,1.0,0.0113968718797,2.2074804306,-0.000655745214317,1.21846967915e-07,0.0,0.0,0.0,1.21846967915e-07,0.0,0.0,0.0,1.21846967915e-07,0.0911181867123,-0.13618697226,4.54465055466,9e-08,0.0,0.0,0.0,9e-08,0.0,0.0,0.0,9e-08
2773550000000,2072,2773550000000,base_link,0.0135181801914,-0.322805367996,-0.033701252272,-0.945768579236,1.0,0.0,0.0,0.0,1.0,0.0,0.0,0.0,1.0,0.00113474577665,1.67296850681,0.00116048357449,1.21846967915e-07,0.0,0.0,0.0,1.21846967915e-07,0.0,0.0,0.0,1.21846967915e-07,0.313518464565,-0.09550691396,5.53406715393,9e-08,0.0,0.0,0.0,9e-08,0.0,0.0,0.0,9e-08
2773570000000,2073,2773570000000,base_link,0.0138936875382,-0.332625162231,-0.0335980767869,-0.942358056254,1.0,0.0,0.0,0.0,1.0,0.0,0.0,0.0,1.0,-0.0053434423171,1.27274394035,0.00213724724017,1.21846967915e-07,0.0,0.0,0.0,1.21846967915e-07,0.0,0.0,0.0,1.21846967915e-07,0.320471048355,-0.11837169528,7.27075147629,9e-08,0.0,0.0,0.0,9e-08,0.0,0.0,0.0,9e-08
2773590000000,2074,2773586000000,base_link,0.0143293384378,-0.343477132786,-0.0335681525244,-0.938451549159,1.0,0.0,0.0,0.0,1.0,0.0,0.0,0.0,1.0,-0.00742364116013,0.935065507889,0.0101587595418,1.21846967915e-07,0.0,0.0,0.0,1.21846967915e-07,0.0,0.0,0.0,1.21846967915e-07,0.166032925248,-0.113190129399,8.67413711548,9e-08,0.0,0.0,0.0,9e-08,0.0,0.0,0.0,9e-08
2773610000000,2075,2773610000000,base_link,0.0144982840801,-0.349168622135,-0.0335476691561,-0.936346988426,1.0,0.0,0.0,0.0,1.0,0.0,0.0,0.0,1.0,0.00371751980856,0.718019425869,0.00461009936407,1.21846967915e-07,0.0,0.0,0.0,1.21846967915e-07,0.0,0.0,0.0,1.21846967915e-07,0.139184951782,-0.0770264938474,10.2814311981,9e-08,0.0,0.0,0.0,9e-08,0.0,0.0,0.0,9e-08
2773630000000,2076,2773626000000,base_link,0.0146872073285,-0.355185105833,-0.0335097791393,-0.934079783004,1.0,0.0,0.0,0.0,1.0,0.0,0.0,0.0,1.0,0.00170689763036,0.62126326561,0.00563989719376,1.21846967915e-07,0.0,0.0,0.0,1.21846967915e-07,0.0,0.0,0.0,1.21846967915e-07,-0.0229846034199,-0.15462602675,11.4856653214,9e-08,0.0,0.0,0.0,9e-08,0.0,0.0,0.0,9e-08
2773650000000,2077,2773650000000,base_link,0.0149742905872,-0.359914677659,-0.0335461518695,-0.9322616944,1.0,0.0,0.0,0.0,1.0,0.0,0.0,0.0,1.0,-0.0173864327371,0.455816239119,0.00548489205539,1.21846967915e-07,0.0,0.0,0.0,1.21846967915e-07,0.0,0.0,0.0,1.21846967915e-07,-0.00399552378803,-0.101839080453,12.1433753967,9e-08,0.0,0.0,0.0,9e-08,0.0,0.0,0.0,9e-08
2773670000000,2078,2773670000000,base_link,0.0152854818431,-0.36393002899,-0.0335631791963,-0.930695854684,1.0,0.0,0.0,0.0,1.0,0.0,0.0,0.0,1.0,-0.0105193378404,0.327771067619,-0.00191643182188,1.21846967915e-07,0.0,0.0,0.0,1.21846967915e-07,0.0,0.0,0.0,1.21846967915e-07,-0.134783327579,-0.0467189177871,12.3388137817,9e-08,0.0,0.0,0.0,9e-08,0.0,0.0,0.0,9e-08
2773690000000,2079,2773690000000,base_link,0.0154013646031,-0.365920013516,-0.0335724936498,-0.929913061266,1.0,0.0,0.0,0.0,1.0,0.0,0.0,0.0,1.0,-0.00419530598447,0.259367287159,0.0014668868389,1.21846967915e-07,0.0,0.0,0.0,1.21846967915e-07,0.0,0.0,0.0,1.21846967915e-07,-0.167955905199,-0.131116762757,12.0601072311,9e-08,0.0,0.0,0.0,9e-08,0.0,0.0,0.0,9e-08
2773710000000,2080,2773710000000,base_link,0.0155732183779,-0.367940975976,-0.0335708920696,-0.929112439732,1.0,0.0,0.0,0.0,1.0,0.0,0.0,0.0,1.0,-0.00897220149636,0.207476109266,-0.00244776392356,1.21846967915e-07,0.0,0.0,0.0,1.21846967915e-07,0.0,0.0,0.0,1.21846967915e-07,-0.397245675325,-0.079458527267,11.6051301956,9e-08,0.0,0.0,0.0,9e-08,0.0,0.0,0.0,9e-08
2773730000000,2081,2773730000000,base_link,0.0158052999993,-0.369693842332,-0.033595252948,-0.928411537641,1.0,0.0,0.0,0.0,1.0,0.0,0.0,0.0,1.0,-0.0177133325487,0.175271838903,-0.00128678546753,1.21846967915e-07,0.0,0.0,0.0,1.21846967915e-07,0.0,0.0,0.0,1.21846967915e-07,-0.386020451784,-0.241988256574,11.0519580841,9e-08,0.0,0.0,0.0,9e-08,0.0,0.0,0.0,9e-08
2773750000000,2082,2773746000000,base_link,0.0161008126276,-0.371225606321,-0.0336601590947,-0.927792737611,1.0,0.0,0.0,0.0,1.0,0.0,0.0,0.0,1.0,-0.0288775190711,0.151988476515,0.00248468713835,1.21846967915e-07,0.0,0.0,0.0,1.21846967915e-07,0.0,0.0,0.0,1.21846967915e-07,-0.498464375734,-0.159660682082,10.5280065536,9e-08,0.0,0.0,0.0,9e-08,0.0,0.0,0.0,9e-08
2773770000000,2083,2773766000000,base_link,0.0164710937652,-0.372464534006,-0.0338176618676,-0.927283814416,1.0,0.0,0.0,0.0,1.0,0.0,0.0,0.0,1.0,-0.035145483911,0.125152722001,0.00273741479032,1.21846967915e-07,0.0,0.0,0.0,1.21846967915e-07,0.0,0.0,0.0,1.21846967915e-07,-0.599136948586,-0.135673865676,10.282661438,9e-08,0.0,0.0,0.0,9e-08,0.0,0.0,0.0,9e-08
2773790000000,2084,2773790000000,base_link,0.0168485187936,-0.373423459103,-0.0338987102573,-0.926888350536,1.0,0.0,0.0,0.0,1.0,0.0,0.0,0.0,1.0,-0.0309792794287,0.0895449221134,-0.00651743914932,1.21846967915e-07,0.0,0.0,0.0,1.21846967915e-07,0.0,0.0,0.0,1.21846967915e-07,-0.588242173195,-0.139858901501,10.1664237976,9e-08,0.0,0.0,0.0,9e-08,0.0,0.0,0.0,9e-08
2773810000000,2085,2773810000000,base_link,0.0172479234035,-0.374288249215,-0.0339635742572,-0.926529723002,1.0,0.0,0.0,0.0,1.0,0.0,0.0,0.0,1.0,-0.0278312135488,0.0729353427887,-0.00401015859097,1.21846967915e-07,0.0,0.0,0.0,1.21846967915e-07,0.0,0.0,0.0,1.21846967915e-07,-0.679352939129,-0.168522819877,10.1257963181,9e-08,0.0,0.0,0.0,9e-08,0.0,0.0,0.0,9e-08
2773830000000,2086,2773830000000,base_link,0.0176160971987,-0.374837570165,-0.0340517033174,-0.92629745172,1.0,0.0,0.0,0.0,1.0,0.0,0.0,0.0,1.0,-0.035091124475,0.0539093986154,-0.00486387452111,1.21846967915e-07,0.0,0.0,0.0,1.21846967915e-07,0.0,0.0,0.0,1.21846967915e-07,-0.671523749828,-0.192348748446,10.2757778168,9e-08,0.0,0.0,0.0,9e-08,0.0,0.0,0.0,9e-08
2773850000000,2087,2773850000000,base_link,0.0180524856682,-0.375214067962,-0.0341374300073,-0.926133416186,1.0,0.0,0.0,0.0,1.0,0.0,0.0,0.0,1.0,-0.0418685041368,0.0344326198101,-0.00734231621027,1.21846967915e-07,0.0,0.0,0.0,1.21846967915e-07,0.0,0.0,0.0,1.21846967915e-07,-0.924235701561,-0.212528243661,10.5262308121,9e-08,0.0,0.0,0.0,9e-08,0.0,0.0,0.0,9e-08
2773870000000,2088,2773870000000,base_link,0.0184241155049,-0.375392454499,-0.0342412376952,-0.926050007572,1.0,0.0,0.0,0.0,1.0,0.0,0.0,0.0,1.0,-0.0444298796356,0.0211743507534,-0.00467864889652,1.21846967915e-07,0.0,0.0,0.0,1.21846967915e-07,0.0,0.0,0.0,1.21846967915e-07,-0.995158970356,-0.18973608315,10.8382558823,9e-08,0.0,0.0,0.0,9e-08,0.0,0.0,0.0,9e-08
2773890000000,2089,2773890000000,base_link,0.0188582280446,-0.374959943539,-0.0343560878574,-0.926212230792,1.0,0.0,0.0,0.0,1.0,0.0,0.0,0.0,1.0,-0.0420475751162,-0.063912011683,-0.00708624441177,1.21846967915e-07,0.0,0.0,0.0,1.21846967915e-07,0.0,0.0,0.0,1.21846967915e-07,-0.988076388836,-0.241549476981,10.7469406128,9e-08,0.0,0.0,0.0,9e-08,0.0,0.0,0.0,9e-08
2773910000000,2090,2773910000000,base_link,0.01921101824,-0.372265390147,-0.0344872909968,-0.92728642752,1.0,0.0,0.0,0.0,1.0,0.0,0.0,0.0,1.0,-0.0318137221038,-0.298015922308,-0.0085378177464,1.21846967915e-07,0.0,0.0,0.0,1.21846967915e-07,0.0,0.0,0.0,1.21846967915e-07,-0.953623056412,-0.138312801719,10.350104332,9e-08,0.0,0.0,0.0,9e-08,0.0,0.0,0.0,9e-08
2773930000000,2091,2773930000000,base_link,0.0194505703902,-0.367674428769,-0.034680028535,-0.92910417895,1.0,0.0,0.0,0.0,1.0,0.0,0.0,0.0,1.0,-0.0409324504435,-0.531153917313,-0.00626965798438,1.21846967915e-07,0.0,0.0,0.0,1.21846967915e-07,0.0,0.0,0.0,1.21846967915e-07,-0.984117090702,-0.299818396568,9.85379600525,9e-08,0.0,0.0,0.0,9e-08,0.0,0.0,0.0,9e-08
2773950000000,2092,2773950000000,base_link,0.0195865782704,-0.362545747361,-0.0348910999523,-0.931106660016,1.0,0.0,0.0,0.0,1.0,0.0,0.0,0.0,1.0,-0.0405788607895,-0.746536910534,-0.00466629909351,1.21846967915e-07,0.0,0.0,0.0,1.21846967915e-07,0.0,0.0,0.0,1.21846967915e-07,-1.03464698792,-0.266391932964,9.25687217712,9e-08,0.0,0.0,0.0,9e-08,0.0,0.0,0.0,9e-08
2773970000000,2093,2773970000000,base_link,0.0197545756086,-0.354415831018,-0.03511460469,-0.9342195841,1.0,0.0,0.0,0.0,1.0,0.0,0.0,0.0,1.0,-0.0449267737567,-0.902240693569,-0.0135393859819,1.21846967915e-07,0.0,0.0,0.0,1.21846967915e-07,0.0,0.0,0.0,1.21846967915e-07,-1.23062336445,-0.155928745866,9.09667778015,9e-08,0.0,0.0,0.0,9e-08,0.0,0.0,0.0,9e-08
2773990000000,2094,2773990000000,base_link,0.0199041337005,-0.342515520827,-0.0354433079615,-0.938632401286,1.0,0.0,0.0,0.0,1.0,0.0,0.0,0.0,1.0,-0.0458230003715,-1.10033845901,-0.011822456494,1.21846967915e-07,0.0,0.0,0.0,1.21846967915e-07,0.0,0.0,0.0,1.21846967915e-07,-1.33702504635,-0.278039634228,8.93690490723,9e-08,0.0,0.0,0.0,9e-08,0.0,0.0,0.0,9e-08
2774010000000,2095,2774010000000,base_link,0.0199251439045,-0.333564647094,-0.035654337232,-0.941842010241,1.0,0.0,0.0,0.0,1.0,0.0,0.0,0.0,1.0,-0.0395668894053,-1.19872188568,-0.0133391590789,1.21846967915e-07,0.0,0.0,0.0,1.21846967915e-07,0.0,0.0,0.0,1.21846967915e-07,-1.53778970242,-0.187371894717,8.85018253326,9e-08,0.0,0.0,0.0,9e-08,0.0,0.0,0.0,9e-08
2774030000000,2096,2774030000000,base_link,0.0198576878734,-0.318819635363,-0.0359164063361,-0.946926521752,1.0,0.0,0.0,0.0,1.0,0.0,0.0,0.0,1.0,-0.0323567427695,-1.32818365097,-0.0185915790498,1.21846967915e-07,0.0,0.0,0.0,1.21846967915e-07,0.0,0.0,0.0,1.21846967915e-07,-1.74331259727,-0.139562666416,8.95410728455,9e-08,0.0,0.0,0.0,9e-08,0.0,0.0,0.0,9e-08
2774050000000,2097,2774050000000,base_link,0.0197984188677,-0.305755914103,-0.0361292479211,-0.951218166748,1.0,0.0,0.0,0.0,1.0,0.0,0.0,0.0,1.0,-0.0370403081179,-1.38869857788,-0.0202769003808,1.21846967915e-07,0.0,0.0,0.0,1.21846967915e-07,0.0,0.0,0.0,1.21846967915e-07,-2.01929235458,-0.16474083066,9.03544425964,9e-08,0.0,0.0,0.0,9e-08,0.0,0.0,0.0,9e-08
2774070000000,2098,2774070000000,base_link,0.0197023240531,-0.29510532119,-0.0362524010124,-0.954573477358,1.0,0.0,0.0,0.0,1.0,0.0,0.0,0.0,1.0,-0.0292016938329,-1.40143465996,-0.0232494026422,1.21846967915e-07,0.0,0.0,0.0,1.21846967915e-07,0.0,0.0,0.0,1.21846967915e-07,-2.17825126648,-0.0970990806818,9.15765285492,9e-08,0.0,0.0,0.0,9e-08,0.0,0.0,0.0,9e-08
2774090000000,2099,2774086000000,base_link,0.0195211242147,-0.281872022085,-0.0364200611758,-0.958561833633,1.0,0.0,0.0,0.0,1.0,0.0,0.0,0.0,1.0,-0.0203045457602,-1.37888085842,-0.0184715036303,1.21846967915e-07,0.0,0.0,0.0,1.21846967915e-07,0.0,0.0,0.0,1.21846967915e-07,-2.57845020294,-0.158027216792,9.20424938202,9e-08,0.0,0.0,0.0,9e-08,0.0,0.0,0.0,9e-08
2774110000000,2100,2774110000000,base_link,0.0191759625988,-0.265438944777,-0.0366753867841,-0.963239037999,1.0,0.0,0.0,0.0,1.0,0.0,0.0,0.0,1.0,-0.0161903910339,-1.38774323463,-0.0111377323046,1.21846967915e-07,0.0,0.0,0.0,1.21846967915e-07,0.0,0.0,0.0,1.21846967915e-07,-2.6835463047,-0.115577958524,9.305727005,9e-08,0.0,0.0,0.0,9e-08,0.0,0.0,0.0,9e-08
2774130000000,2101,2774130000000,base_link,0.0184601615971,-0.243370665236,-0.0369588664871,-0.969053195751,1.0,0.0,0.0,0.0,1.0,0.0,0.0,0.0,1.0,-0.00291971350089,-2.44424438477,-0.0197170395404,1.21846967915e-07,0.0,0.0,0.0,1.21846967915e-07,0.0,0.0,0.0,1.21846967915e-07,-2.33513021469,-0.130814984441,10.7204627991,9e-08,0.0,0.0,0.0,9e-08,0.0,0.0,0.0,9e-08
2774150000000,2102,2774150000000,base_link,0.0172774683443,-0.217975092202,-0.0372615230063,-0.975089762423,1.0,0.0,0.0,0.0,1.0,0.0,0.0,0.0,1.0,0.0438550487161,-3.46780538559,-0.0137655586004,1.21846967915e-07,0.0,0.0,0.0,1.21846967915e-07,0.0,0.0,0.0,1.21846967915e-07,-2.34228825569,-0.0734159201384,12.3385343552,9e-08,0.0,0.0,0.0,9e-08,0.0,0.0,0.0,9e-08
2774170000000,2103,2774170000000,base_link,0.015344929973,-0.181590392232,-0.0375828505793,-0.982536014737,1.0,0.0,0.0,0.0,1.0,0.0,0.0,0.0,1.0,0.0727863684297,-3.80145049095,-0.0169942826033,1.21846967915e-07,0.0,0.0,0.0,1.21846967915e-07,0.0,0.0,0.0,1.21846967915e-07,-3.74071717262,-0.118479087949,16.4700431824,9e-08,0.0,0.0,0.0,9e-08,0.0,0.0,0.0,9e-08
2774190000000,2104,2774190000000,base_link,0.0126643587975,-0.136599189893,-0.0380111047071,-0.989815913439,1.0,0.0,0.0,0.0,1.0,0.0,0.0,0.0,1.0,0.0901562646031,-3.8207719326,-0.0043903295882,1.21846967915e-07,0.0,0.0,0.0,1.21846967915e-07,0.0,0.0,0.0,1.21846967915e-07,-4.71392679214,0.0241232775152,16.963684082,9e-08,0.0,0.0,0.0,9e-08,0.0,0.0,0.0,9e-08
2774210000000,2105,2774210000000,base_link,0.0107996189004,-0.105079063373,-0.0382657981126,-0.993668767596,1.0,0.0,0.0,0.0,1.0,0.0,0.0,0.0,1.0,0.0873125493526,-3.9867272377,-0.00720638781786,1.21846967915e-07,0.0,0.0,0.0,1.21846967915e-07,0.0,0.0,0.0,1.21846967915e-07,-4.98011922836,-0.00968116894364,18.3820552826,9e-08,0.0,0.0,0.0,9e-08,0.0,0.0,0.0,9e-08
2774230000000,2106,2774230000000,base_link,0.00794414884034,-0.0543796235797,-0.038703872456,-0.997738382995,1.0,0.0,0.0,0.0,1.0,0.0,0.0,0.0,1.0,0.0813907533884,-4.26108694077,-0.00104212702718,1.21846967915e-07,0.0,0.0,0.0,1.21846967915e-07,0.0,0.0,0.0,1.21846967915e-07,-5.1412396431,0.00876253843308,19.1543121338,9e-08,0.0,0.0,0.0,9e-08,0.0,0.0,0.0,9e-08
