%time,field.header.seq,field.header.stamp,field.header.frame_id,field.orientation.x,field.orientation.y,field.orientation.z,field.orientation.w,field.orientation_covariance0,field.orientation_covariance1,field.orientation_covariance2,field.orientation_covariance3,field.orientation_covariance4,field.orientation_covariance5,field.orientation_covariance6,field.orientation_covariance7,field.orientation_covariance8,field.angular_velocity.x,field.angular_velocity.y,field.angular_velocity.z,field.angular_velocity_covariance0,field.angular_velocity_covariance1,field.angular_velocity_covariance2,field.angular_velocity_covariance3,field.angular_velocity_covariance4,field.angular_velocity_covariance5,field.angular_velocity_covariance6,field.angular_velocity_covariance7,field.angular_velocity_covariance8,field.linear_acceleration.x,field.linear_acceleration.y,field.linear_acceleration.z,field.linear_acceleration_covariance0,field.linear_acceleration_covariance1,field.linear_acceleration_covariance2,field.linear_acceleration_covariance3,field.linear_acceleration_covariance4,field.linear_acceleration_covariance5,field.linear_acceleration_covariance6,field.linear_acceleration_covariance7,field.linear_acceleration_covariance8
3099790000000,1342,3099790000000,base_link,0.00966855298517,-0.0110059737396,0.0168223666741,-0.999751190039,1.0,0.0,0.0,0.0,1.0,0.0,0.0,0.0,1.0,-0.00139333691914,-0.00608795974404,-0.000568061310332,1.21846967915e-07,0.0,0.0,0.0,1.21846967915e-07,0.0,0.0,0.0,1.21846967915e-07,-0.275560259819,-0.120699189603,9.79013633728,9e-08,0.0,0.0,0.0,9e-08,0.0,0.0,0.0,9e-08
3099810000000,1343,3099810000000,base_link,0.00970643110702,-0.0110218631427,0.0168039063544,-0.999750937158,1.0,0.0,0.0,0.0,1.0,0.0,0.0,0.0,1.0,-0.000935769290663,-0.00306767970324,0.0052427155897,1.21846967915e-07,0.0,0.0,0.0,1.21846967915e-07,0.0,0.0,0.0,1.21846967915e-07,-0.246690765023,-0.186915159225,9.80518245697,9e-08,0.0,0.0,0.0,9e-08,0.0,0.0,0.0,9e-08
3099830000000,1344,3099830000000,base_link,0.009674645592,-0.0110155031256,0.0167908408314,-0.999751527214,1.0,0.0,0.0,0.0,1.0,0.0,0.0,0.0,1.0,0.0047344933264,-0.00784434191883,0.00440752226859,1.21846967915e-07,0.0,0.0,0.0,1.21846967915e-07,0.0,0.0,0.0,1.21846967915e-07,-0.257988780737,-0.267428189516,9.77631187439,9e-08,0.0,0.0,0.0,9e-08,0.0,0.0,0.0,9e-08
3099850000000,1345,3099850000000,base_link,0.00966279512474,-0.0110411803934,0.0167879326989,-0.999751400773,1.0,0.0,0.0,0.0,1.0,0.0,0.0,0.0,1.0,0.00211261631921,-0.00280376244336,0.000258190499153,1.21846967915e-07,0.0,0.0,0.0,1.21846967915e-07,0.0,0.0,0.0,1.21846967915e-07,-0.242879465222,-0.104629054666,9.80996608734,9e-08,0.0,0.0,0.0,9e-08,0.0,0.0,0.0,9e-08
3099870000000,1346,3099870000000,base_link,0.00961855496903,-0.0110332414335,0.0167488625703,-0.999752623032,1.0,0.0,0.0,0.0,1.0,0.0,0.0,0.0,1.0,0.00357226701453,-0.00777389574796,0.00509621202946,1.21846967915e-07,0.0,0.0,0.0,1.21846967915e-07,0.0,0.0,0.0,1.21846967915e-07,-0.232427895069,-0.22776094079,9.73764801025,9e-08,0.0,0.0,0.0,9e-08,0.0,0.0,0.0,9e-08
3099890000000,1347,3099890000000,base_link,0.0096099085266,-0.0110272220898,0.0167724226586,-0.999752412298,1.0,0.0,0.0,0.0,1.0,0.0,0.0,0.0,1.0,0.00143169076182,-0.00561007577926,-0.00227277819067,1.21846967915e-07,0.0,0.0,0.0,1.21846967915e-07,0.0,0.0,0.0,1.21846967915e-07,-0.283825516701,-0.216886609793,9.74363613129,9e-08,0.0,0.0,0.0,9e-08,0.0,0.0,0.0,9e-08
3099910000000,1348,3099910000000,base_link,0.00965342802882,-0.0110344961255,0.0166931865834,-0.999753170941,1.0,0.0,0.0,0.0,1.0,0.0,0.0,0.0,1.0,-0.00325701665133,-0.00516182836145,0.0120693743229,1.21846967915e-07,0.0,0.0,0.0,1.21846967915e-07,0.0,0.0,0.0,1.21846967915e-07,-0.22841334343,-0.1383369416,9.80394077301,9e-08,0.0,0.0,0.0,9e-08,0.0,0.0,0.0,9e-08
3099930000000,1349,3099930000000,base_link,0.00965936645392,-0.0110261131831,0.0167287585236,-0.999752665179,1.0,0.0,0.0,0.0,1.0,0.0,0.0,0.0,1.0,0.00040104665095,-0.00570451421663,-0.00172315398231,1.21846967915e-07,0.0,0.0,0.0,1.21846967915e-07,0.0,0.0,0.0,1.21846967915e-07,-0.269220083952,-0.140707269311,9.75901889801,9e-08,0.0,0.0,0.0,9e-08,0.0,0.0,0.0,9e-08
3099950000000,1350,3099950000000,base_link,0.00963856517318,-0.0110332536166,0.0167373986275,-0.999752623032,1.0,0.0,0.0,0.0,1.0,0.0,0.0,0.0,1.0,0.00507584540173,-0.00506429746747,-3.17074445775e-05,1.21846967915e-07,0.0,0.0,0.0,1.21846967915e-07,0.0,0.0,0.0,1.21846967915e-07,-0.11058948189,-0.157347708941,9.78471851349,9e-08,0.0,0.0,0.0,9e-08,0.0,0.0,0.0,9e-08
3099970000000,1351,3099970000000,base_link,0.00964787061287,-0.011008014034,0.0167085280363,-0.999753255235,1.0,0.0,0.0,0.0,1.0,0.0,0.0,0.0,1.0,-0.0007457145839,-0.0075483135879,0.00323605490848,1.21846967915e-07,0.0,0.0,0.0,1.21846967915e-07,0.0,0.0,0.0,1.21846967915e-07,-0.217099860311,-0.100685067475,9.80360889435,9e-08,0.0,0.0,0.0,9e-08,0.0,0.0,0.0,9e-08
3099990000000,1352,3099990000000,base_link,0.00967913246153,-0.0110543129233,0.0166752320259,-0.999753086647,1.0,0.0,0.0,0.0,1.0,0.0,0.0,0.0,1.0,-0.00290817045607,-0.00101847760379,0.00546565791592,1.21846967915e-07,0.0,0.0,0.0,1.21846967915e-07,0.0,0.0,0.0,1.21846967915e-07,-0.197062507272,-0.149856954813,9.8165512085,9e-08,0.0,0.0,0.0,9e-08,0.0,0.0,0.0,9e-08
3100010000000,1353,3100010000000,base_link,0.00970983253056,-0.0110776029672,0.0166665497751,-0.999752665179,1.0,0.0,0.0,0.0,1.0,0.0,0.0,0.0,1.0,0.00172798824497,-0.00247558602132,0.00185505277477,1.21846967915e-07,0.0,0.0,0.0,1.21846967915e-07,0.0,0.0,0.0,1.21846967915e-07,-0.311297476292,-0.163847476244,9.81485748291,9e-08,0.0,0.0,0.0,9e-08,0.0,0.0,0.0,9e-08
3100030000000,1354,3100030000000,base_link,0.0097223343395,-0.0110852025708,0.0166888876049,-0.999752075123,1.0,0.0,0.0,0.0,1.0,0.0,0.0,0.0,1.0,-0.00174302770756,-0.00572715140879,-0.00261088949628,1.21846967915e-07,0.0,0.0,0.0,1.21846967915e-07,0.0,0.0,0.0,1.21846967915e-07,-0.192694813013,-0.219558537006,9.76324558258,9e-08,0.0,0.0,0.0,9e-08,0.0,0.0,0.0,9e-08
3100046000000,1355,3100050000000,base_link,0.00969687982443,-0.0110517476455,0.0166590054893,-0.999753128794,1.0,0.0,0.0,0.0,1.0,0.0,0.0,0.0,1.0,0.00520324520767,-0.00874256715178,0.0043182070367,1.21846967915e-07,0.0,0.0,0.0,1.21846967915e-07,0.0,0.0,0.0,1.21846967915e-07,-0.238887265325,-0.223230034113,9.80494403839,9e-08,0.0,0.0,0.0,9e-08,0.0,0.0,0.0,9e-08
3100070000000,1356,3100070000000,base_link,0.0096625324478,-0.0110251164349,0.0166719867186,-0.999753550262,1.0,0.0,0.0,0.0,1.0,0.0,0.0,0.0,1.0,0.00341974431649,-0.010841823183,-0.00286006345414,1.21846967915e-07,0.0,0.0,0.0,1.21846967915e-07,0.0,0.0,0.0,1.21846967915e-07,-0.252910017967,-0.193939849734,9.81920051575,9e-08,0.0,0.0,0.0,9e-08,0.0,0.0,0.0,9e-08
3100090000000,1357,3100090000000,base_link,0.00967065287781,-0.0110133121069,0.0166553387134,-0.99975384529,1.0,0.0,0.0,0.0,1.0,0.0,0.0,0.0,1.0,-0.000541619083378,-0.00722866412252,0.00502524059266,1.21846967915e-07,0.0,0.0,0.0,1.21846967915e-07,0.0,0.0,0.0,1.21846967915e-07,-0.202730461955,-0.154803782701,9.79245567322,9e-08,0.0,0.0,0.0,9e-08,0.0,0.0,0.0,9e-08
3100110000000,1358,3100106000000,base_link,0.00969516089979,-0.0110116345059,0.0166325794152,-0.999754013878,1.0,0.0,0.0,0.0,1.0,0.0,0.0,0.0,1.0,-0.00203240709379,-0.006460363511,0.00439397105947,1.21846967915e-07,0.0,0.0,0.0,1.21846967915e-07,0.0,0.0,0.0,1.21846967915e-07,-0.259562551975,-0.193837657571,9.7506980896,9e-08,0.0,0.0,0.0,9e-08,0.0,0.0,0.0,9e-08
3100130000000,1359,3100130000000,base_link,0.00969358162774,-0.0109916029814,0.016613739774,-0.999754646081,1.0,0.0,0.0,0.0,1.0,0.0,0.0,0.0,1.0,0.00206626788713,-0.00862611550838,0.00431475928053,1.21846967915e-07,0.0,0.0,0.0,1.21846967915e-07,0.0,0.0,0.0,1.21846967915e-07,-0.211772546172,-0.100367762148,9.84592914581,9e-08,0.0,0.0,0.0,9e-08,0.0,0.0,0.0,9e-08
3100150000000,1360,3100150000000,base_link,0.00969583302678,-0.0109967351834,0.0166010535726,-0.999754772521,1.0,0.0,0.0,0.0,1.0,0.0,0.0,0.0,1.0,-0.000351273571141,-0.00540426233783,0.00418835552409,1.21846967915e-07,0.0,0.0,0.0,1.21846967915e-07,0.0,0.0,0.0,1.21846967915e-07,-0.253980636597,-0.17601595819,9.76595306396,9e-08,0.0,0.0,0.0,9e-08,0.0,0.0,0.0,9e-08
3100170000000,1361,3100170000000,base_link,0.00967811315811,-0.0110210642047,0.0165472741939,-0.999755531164,1.0,0.0,0.0,0.0,1.0,0.0,0.0,0.0,1.0,0.00278412830085,-0.00438632024452,0.00408986583352,1.21846967915e-07,0.0,0.0,0.0,1.21846967915e-07,0.0,0.0,0.0,1.21846967915e-07,-0.155324921012,-0.139902189374,9.76282787323,9e-08,0.0,0.0,0.0,9e-08,0.0,0.0,0.0,9e-08
3100190000000,1362,3100190000000,base_link,0.00969109455209,-0.0110368612057,0.0165459676416,-0.999755236136,1.0,0.0,0.0,0.0,1.0,0.0,0.0,0.0,1.0,-0.00129448971711,-0.00250264513306,0.00182877318002,1.21846967915e-07,0.0,0.0,0.0,1.21846967915e-07,0.0,0.0,0.0,1.21846967915e-07,-0.282748728991,-0.184331610799,9.75393772125,9e-08,0.0,0.0,0.0,9e-08,0.0,0.0,0.0,9e-08
3100210000000,1363,3100210000000,base_link,0.00969531162416,-0.0110506000082,0.0165253578326,-0.999755362577,1.0,0.0,0.0,0.0,1.0,0.0,0.0,0.0,1.0,-0.00157326692715,-0.00480334647,0.00541609525681,1.21846967915e-07,0.0,0.0,0.0,1.21846967915e-07,0.0,0.0,0.0,1.21846967915e-07,-0.250112622976,-0.151867866516,9.83832931519,9e-08,0.0,0.0,0.0,9e-08,0.0,0.0,0.0,9e-08
3100230000000,1364,3100230000000,base_link,0.00968382290363,-0.0110289204761,0.0164589343994,-0.999756879864,1.0,0.0,0.0,0.0,1.0,0.0,0.0,0.0,1.0,0.00236594234593,-0.00667202519253,0.00994407292455,1.21846967915e-07,0.0,0.0,0.0,1.21846967915e-07,0.0,0.0,0.0,1.21846967915e-07,-0.209331601858,-0.15151463449,9.83717441559,9e-08,0.0,0.0,0.0,9e-08,0.0,0.0,0.0,9e-08
3100250000000,1365,3100246000000,base_link,0.00970067308195,-0.0110288987441,0.016420370033,-0.999757343479,1.0,0.0,0.0,0.0,1.0,0.0,0.0,0.0,1.0,-1.44162331708e-05,-0.00667048012838,0.00510742329061,1.21846967915e-07,0.0,0.0,0.0,1.21846967915e-07,0.0,0.0,0.0,1.21846967915e-07,-0.236193105578,-0.215170741081,9.83691883087,9e-08,0.0,0.0,0.0,9e-08,0.0,0.0,0.0,9e-08
3100270000000,1366,3100270000000,base_link,0.0094042457353,-0.0110133972649,0.0164578385813,-0.999759661556,1.0,0.0,0.0,0.0,1.0,0.0,0.0,0.0,1.0,0.0371926240623,-0.00592787144706,-0.00152411870658,1.21846967915e-07,0.0,0.0,0.0,1.21846967915e-07,0.0,0.0,0.0,1.21846967915e-07,-0.177752748132,-0.368296682835,10.205034256,9e-08,0.0,0.0,0.0,9e-08,0.0,0.0,0.0,9e-08
3100290000000,1367,3100290000000,base_link,0.0083630181326,-0.0109704564587,0.0164706933701,-0.99976922889,1.0,0.0,0.0,0.0,1.0,0.0,0.0,0.0,1.0,0.117939814925,-0.00910944677889,0.00173504697159,1.21846967915e-07,0.0,0.0,0.0,1.21846967915e-07,0.0,0.0,0.0,1.21846967915e-07,-0.234996691346,-0.232266157866,10.7863693237,9e-08,0.0,0.0,0.0,9e-08,0.0,0.0,0.0,9e-08
3100310000000,1368,3100310000000,base_link,0.00626249551166,-0.0109382945443,0.0164282514937,-0.999785624014,1.0,0.0,0.0,0.0,1.0,0.0,0.0,0.0,1.0,0.227636530995,-0.00566909601912,0.00961078610271,1.21846967915e-07,0.0,0.0,0.0,1.21846967915e-07,0.0,0.0,0.0,1.21846967915e-07,-0.291410088539,-0.0297729354352,11.0093126297,9e-08,0.0,0.0,0.0,9e-08,0.0,0.0,0.0,9e-08
3100330000000,1369,3100330000000,base_link,0.00431437795289,-0.0108272053298,0.0163947447491,-0.99979772016,1.0,0.0,0.0,0.0,1.0,0.0,0.0,0.0,1.0,0.237314075232,-0.0220415368676,0.00643553119153,1.21846967915e-07,0.0,0.0,0.0,1.21846967915e-07,0.0,0.0,0.0,1.21846967915e-07,-0.210305228829,-0.242663040757,11.4893093109,9e-08,0.0,0.0,0.0,9e-08,0.0,0.0,0.0,9e-08
3100350000000,1370,3100350000000,base_link,0.00265523894384,-0.0105012646525,0.0163812577576,-0.999807161054,1.0,0.0,0.0,0.0,1.0,0.0,0.0,0.0,1.0,0.103284865618,-0.0343689844012,0.00457778479904,1.21846967915e-07,0.0,0.0,0.0,1.21846967915e-07,0.0,0.0,0.0,1.21846967915e-07,-0.243778645992,-0.255392640829,11.8637170792,9e-08,0.0,0.0,0.0,9e-08,0.0,0.0,0.0,9e-08
3100370000000,1371,3100370000000,base_link,0.00248716290961,-0.0103131194744,0.0163703838707,-0.999809774158,1.0,0.0,0.0,0.0,1.0,0.0,0.0,0.0,1.0,0.0159912351519,-0.0295346900821,0.00336646661162,1.21846967915e-07,0.0,0.0,0.0,1.21846967915e-07,0.0,0.0,0.0,1.21846967915e-07,-0.21694020927,-0.122995451093,12.1052885056,9e-08,0.0,0.0,0.0,9e-08,0.0,0.0,0.0,9e-08
3100390000000,1372,3100390000000,base_link,0.00175629869012,-0.0100849400585,0.0164565741759,-0.999812260822,1.0,0.0,0.0,0.0,1.0,0.0,0.0,0.0,1.0,0.0833148807287,-0.0244021210819,-0.00463148579001,1.21846967915e-07,0.0,0.0,0.0,1.21846967915e-07,0.0,0.0,0.0,1.21846967915e-07,-0.179557427764,-0.087981544435,12.0502109528,9e-08,0.0,0.0,0.0,9e-08,0.0,0.0,0.0,9e-08
3100410000000,1373,3100406000000,base_link,0.000414218239348,-0.0099712071171,0.0164972880315,-0.999814115284,1.0,0.0,0.0,0.0,1.0,0.0,0.0,0.0,1.0,0.187616050243,-0.0176898650825,-0.000375901669031,1.21846967915e-07,0.0,0.0,0.0,1.21846967915e-07,0.0,0.0,0.0,1.21846967915e-07,-0.29914906621,0.00450871046633,11.9133834839,9e-08,0.0,0.0,0.0,9e-08,0.0,0.0,0.0,9e-08
3100430000000,1374,3100430000000,base_link,-0.00122360763524,-0.00977308400187,0.0165310055103,-0.999814873927,1.0,0.0,0.0,0.0,1.0,0.0,0.0,0.0,1.0,0.132965296507,-0.0281027909368,0.00307256751694,1.21846967915e-07,0.0,0.0,0.0,1.21846967915e-07,0.0,0.0,0.0,1.21846967915e-07,-0.269752800465,-0.245313972235,11.7185792923,9e-08,0.0,0.0,0.0,9e-08,0.0,0.0,0.0,9e-08
3100446000000,1375,3100446000000,base_link,-0.00148984565529,-0.00947838302965,0.0166523462872,-0.999815337542,1.0,0.0,0.0,0.0,1.0,0.0,0.0,0.0,1.0,-0.00996058061719,-0.0310301184654,-0.00845216680318,1.21846967915e-07,0.0,0.0,0.0,1.21846967915e-07,0.0,0.0,0.0,1.21846967915e-07,-0.160840287805,-0.227003514767,11.4752845764,9e-08,0.0,0.0,0.0,9e-08,0.0,0.0,0.0,9e-08
3100470000000,1376,3100470000000,base_link,-0.000828048925254,-0.00928802777616,0.0167204555944,-0.999816770535,1.0,0.0,0.0,0.0,1.0,0.0,0.0,0.0,1.0,-0.0865386649966,-0.0317289978266,-0.00645939260721,1.21846967915e-07,0.0,0.0,0.0,1.21846967915e-07,0.0,0.0,0.0,1.21846967915e-07,-0.205769047141,-0.190893486142,11.3093700409,9e-08,0.0,0.0,0.0,9e-08,0.0,0.0,0.0,9e-08
3100490000000,1377,3100490000000,base_link,-0.000311476735024,-0.00894924877365,0.0167652576944,-0.999819425787,1.0,0.0,0.0,0.0,1.0,0.0,0.0,0.0,1.0,-0.0444583967328,-0.0353225022554,-0.0010278330883,1.21846967915e-07,0.0,0.0,0.0,1.21846967915e-07,0.0,0.0,0.0,1.21846967915e-07,-0.272977203131,-0.0123331109062,11.2209920883,9e-08,0.0,0.0,0.0,9e-08,0.0,0.0,0.0,9e-08
3100510000000,1378,3100510000000,base_link,-0.000809016330428,-0.00872868377869,0.0168464746714,-0.999819720815,1.0,0.0,0.0,0.0,1.0,0.0,0.0,0.0,1.0,0.0644295215607,-0.0276473760605,-0.00557257514447,1.21846967915e-07,0.0,0.0,0.0,1.21846967915e-07,0.0,0.0,0.0,1.21846967915e-07,-0.236148297787,-0.0557980239391,11.156291008,9e-08,0.0,0.0,0.0,9e-08,0.0,0.0,0.0,9e-08
3100530000000,1379,3100526000000,base_link,-0.00112529484273,-0.00855695710297,0.0169037943854,-0.999819889402,1.0,0.0,0.0,0.0,1.0,0.0,0.0,0.0,1.0,0.025809224695,-0.0232336595654,-0.00162909051869,1.21846967915e-07,0.0,0.0,0.0,1.21846967915e-07,0.0,0.0,0.0,1.21846967915e-07,-0.212526828051,-0.17173075676,11.1311359406,9e-08,0.0,0.0,0.0,9e-08,0.0,0.0,0.0,9e-08
3100550000000,1380,3100550000000,base_link,-0.000420630487222,-0.00850849151991,0.0169169020553,-0.999820690192,1.0,0.0,0.0,0.0,1.0,0.0,0.0,0.0,1.0,-0.0858927965164,-0.00984300114214,0.00159456976689,1.21846967915e-07,0.0,0.0,0.0,1.21846967915e-07,0.0,0.0,0.0,1.21846967915e-07,-0.185723856091,-0.245010674,11.1286125183,9e-08,0.0,0.0,0.0,9e-08,0.0,0.0,0.0,9e-08
3100570000000,1381,3100570000000,base_link,0.000676617274188,-0.00854089256824,0.0169294196693,-0.999820057989,1.0,0.0,0.0,0.0,1.0,0.0,0.0,0.0,1.0,-0.108931005001,-0.00307141058147,0.000828475458547,1.21846967915e-07,0.0,0.0,0.0,1.21846967915e-07,0.0,0.0,0.0,1.21846967915e-07,-0.224819377065,-0.13398116827,11.3169841766,9e-08,0.0,0.0,0.0,9e-08,0.0,0.0,0.0,9e-08
3100590000000,1382,3100590000000,base_link,0.00100728860599,-0.00854443257425,0.0169547077784,-0.999819299346,1.0,0.0,0.0,0.0,1.0,0.0,0.0,0.0,1.0,-0.0145542053506,-0.011172093451,0.00101060152519,1.21846967915e-07,0.0,0.0,0.0,1.21846967915e-07,0.0,0.0,0.0,1.21846967915e-07,-0.140418559313,0.00755576603115,11.4254665375,9e-08,0.0,0.0,0.0,9e-08,0.0,0.0,0.0,9e-08
3100610000000,1383,3100610000000,base_link,0.000720269226171,-0.00845619353708,0.0169984140603,-0.99981951008,1.0,0.0,0.0,0.0,1.0,0.0,0.0,0.0,1.0,0.0383605137467,-0.0140745425597,-0.00236269459128,1.21846967915e-07,0.0,0.0,0.0,1.21846967915e-07,0.0,0.0,0.0,1.21846967915e-07,-0.190857648849,-0.147572800517,11.5195732117,9e-08,0.0,0.0,0.0,9e-08,0.0,0.0,0.0,9e-08
3100630000000,1384,3100630000000,base_link,0.000981594833463,-0.00848943883947,0.0170081078355,-0.999818835731,1.0,0.0,0.0,0.0,1.0,0.0,0.0,0.0,1.0,-0.0215300060809,-0.00202664965764,0.00205713394098,1.21846967915e-07,0.0,0.0,0.0,1.21846967915e-07,0.0,0.0,0.0,1.21846967915e-07,-0.231631875038,-0.253879010677,11.608089447,9e-08,0.0,0.0,0.0,9e-08,0.0,0.0,0.0,9e-08
3100650000000,1385,3100650000000,base_link,0.00185182155882,-0.00854593504354,0.0169905747465,-0.999817487032,1.0,0.0,0.0,0.0,1.0,0.0,0.0,0.0,1.0,-0.112081259489,-0.00130532856565,0.00420523900539,1.21846967915e-07,0.0,0.0,0.0,1.21846967915e-07,0.0,0.0,0.0,1.21846967915e-07,-0.188156977296,-0.15542961657,11.6123600006,9e-08,0.0,0.0,0.0,9e-08,0.0,0.0,0.0,9e-08
3100670000000,1386,3100670000000,base_link,0.00318799947517,-0.00861679410333,0.0169930614106,-0.999813483081,1.0,0.0,0.0,0.0,1.0,0.0,0.0,0.0,1.0,-0.0990280807018,-0.00154017435852,0.00123064150102,1.21846967915e-07,0.0,0.0,0.0,1.21846967915e-07,0.0,0.0,0.0,1.21846967915e-07,-0.183533892035,-0.0468417294323,11.6300773621,9e-08,0.0,0.0,0.0,9e-08,0.0,0.0,0.0,9e-08
3100690000000,1387,3100690000000,base_link,0.00338051969372,-0.00864946317928,0.0170296448751,-0.999811881501,1.0,0.0,0.0,0.0,1.0,0.0,0.0,0.0,1.0,-0.0186786912382,-0.00247811502777,-0.00107940123416,1.21846967915e-07,0.0,0.0,0.0,1.21846967915e-07,0.0,0.0,0.0,1.21846967915e-07,-0.251657664776,-0.0198340732604,11.5544462204,9e-08,0.0,0.0,0.0,9e-08,0.0,0.0,0.0,9e-08
3100710000000,1388,3100710000000,base_link,0.00303856584814,-0.00866601306131,0.0170726346606,-0.999812134382,1.0,0.0,0.0,0.0,1.0,0.0,0.0,0.0,1.0,0.0336844958365,-0.00628764554858,-0.000528224045411,1.21846967915e-07,0.0,0.0,0.0,1.21846967915e-07,0.0,0.0,0.0,1.21846967915e-07,-0.232861191034,-0.161148265004,11.5923194885,9e-08,0.0,0.0,0.0,9e-08,0.0,0.0,0.0,9e-08
3100730000000,1389,3100730000000,base_link,0.00323280305686,-0.00863236851631,0.0170699372622,-0.999811797207,1.0,0.0,0.0,0.0,1.0,0.0,0.0,0.0,1.0,-0.0448773950338,-0.01058914233,0.00393883977085,1.21846967915e-07,0.0,0.0,0.0,1.21846967915e-07,0.0,0.0,0.0,1.21846967915e-07,-0.260770797729,-0.211090356112,11.5280981064,9e-08,0.0,0.0,0.0,9e-08,0.0,0.0,0.0,9e-08
3100750000000,1390,3100750000000,base_link,0.00416909249771,-0.0086526979499,0.0170850679809,-0.999807961844,1.0,0.0,0.0,0.0,1.0,0.0,0.0,0.0,1.0,-0.107092455029,-0.00292936712503,0.00156554940622,1.21846967915e-07,0.0,0.0,0.0,1.21846967915e-07,0.0,0.0,0.0,1.21846967915e-07,-0.281355410814,-0.168452426791,11.481543541,9e-08,0.0,0.0,0.0,9e-08,0.0,0.0,0.0,9e-08
3100770000000,1391,3100770000000,base_link,0.00513847873918,-0.00869190686673,0.0170709066398,-0.999803325691,1.0,0.0,0.0,0.0,1.0,0.0,0.0,0.0,1.0,-0.0651472955942,-0.00403405213729,0.0029954565689,1.21846967915e-07,0.0,0.0,0.0,1.21846967915e-07,0.0,0.0,0.0,1.21846967915e-07,-0.218033418059,-0.0477846041322,11.467625618,9e-08,0.0,0.0,0.0,9e-08,0.0,0.0,0.0,9e-08
3100790000000,1392,3100786000000,base_link,0.0051400888805,-0.0087179121308,0.0170449863279,-0.999803536425,1.0,0.0,0.0,0.0,1.0,0.0,0.0,0.0,1.0,0.0208505131304,-0.0049886899069,0.00579721201211,1.21846967915e-07,0.0,0.0,0.0,1.21846967915e-07,0.0,0.0,0.0,1.21846967915e-07,-0.239410221577,-0.109138973057,11.4711761475,9e-08,0.0,0.0,0.0,9e-08,0.0,0.0,0.0,9e-08
3100810000000,1393,3100810000000,base_link,0.00479777184762,-0.00872631285382,0.0170057054651,-0.999805812355,1.0,0.0,0.0,0.0,1.0,0.0,0.0,0.0,1.0,0.035706423223,-0.00330871436745,0.00660705287009,1.21846967915e-07,0.0,0.0,0.0,1.21846967915e-07,0.0,0.0,0.0,1.21846967915e-07,-0.164759576321,-0.0610125437379,11.4897661209,9e-08,0.0,0.0,0.0,9e-08,0.0,0.0,0.0,9e-08
3100830000000,1394,3100830000000,base_link,0.0050786247813,-0.00874691657121,0.01703078284,-0.999803831453,1.0,0.0,0.0,0.0,1.0,0.0,0.0,0.0,1.0,-0.0536641925573,-0.00478045083582,-0.00367724942043,1.21846967915e-07,0.0,0.0,0.0,1.21846967915e-07,0.0,0.0,0.0,1.21846967915e-07,-0.186455354095,-0.189210638404,11.5134620667,9e-08,0.0,0.0,0.0,9e-08,0.0,0.0,0.0,9e-08
3100846000000,1395,3100850000000,base_link,0.00598627403919,-0.00871438471947,0.0170426261044,-0.999798900271,1.0,0.0,0.0,0.0,1.0,0.0,0.0,0.0,1.0,-0.0813181400299,-0.00933494977653,-0.000312471442157,1.21846967915e-07,0.0,0.0,0.0,1.21846967915e-07,0.0,0.0,0.0,1.21846967915e-07,-0.147309362888,-0.0599540919065,11.3953485489,9e-08,0.0,0.0,0.0,9e-08,0.0,0.0,0.0,9e-08
3100870000000,1396,3100870000000,base_link,0.00622575803005,-0.00869460039608,0.0170052839966,-0.999798225922,1.0,0.0,0.0,0.0,1.0,0.0,0.0,0.0,1.0,-0.0118161318824,-0.00834684632719,0.00594475399703,1.21846967915e-07,0.0,0.0,0.0,1.21846967915e-07,0.0,0.0,0.0,1.21846967915e-07,-0.154085889459,1.27269886448e-05,11.4463996887,9e-08,0.0,0.0,0.0,9e-08,0.0,0.0,0.0,9e-08
3100890000000,1397,3100890000000,base_link,0.00590857821727,-0.00864449544878,0.0169940729349,-0.999800839027,1.0,0.0,0.0,0.0,1.0,0.0,0.0,0.0,1.0,0.045502461493,-0.0119777098298,0.0031800980214,1.21846967915e-07,0.0,0.0,0.0,1.21846967915e-07,0.0,0.0,0.0,1.21846967915e-07,-0.254340201616,-0.0506128929555,11.4076137543,9e-08,0.0,0.0,0.0,9e-08,0.0,0.0,0.0,9e-08
3100910000000,1398,3100910000000,base_link,0.00549625625683,-0.00850129692116,0.016993777907,-0.999804421509,1.0,0.0,0.0,0.0,1.0,0.0,0.0,0.0,1.0,0.0325508788228,-0.021424183622,0.00418125279248,1.21846967915e-07,0.0,0.0,0.0,1.21846967915e-07,0.0,0.0,0.0,1.21846967915e-07,-0.234705045819,-0.0728191882372,11.4887218475,9e-08,0.0,0.0,0.0,9e-08,0.0,0.0,0.0,9e-08
3100930000000,1399,3100926000000,base_link,0.00579287071245,-0.00830925801632,0.0169541177225,-0.999804969418,1.0,0.0,0.0,0.0,1.0,0.0,0.0,0.0,1.0,-0.0395759604871,-0.0225978456438,0.00644553964958,1.21846967915e-07,0.0,0.0,0.0,1.21846967915e-07,0.0,0.0,0.0,1.21846967915e-07,-0.200979322195,-0.0716428458691,11.4829235077,9e-08,0.0,0.0,0.0,9e-08,0.0,0.0,0.0,9e-08
3100950000000,1400,3100950000000,base_link,0.00621936051711,-0.00822552745717,0.0169718615458,-0.999802819928,1.0,0.0,0.0,0.0,1.0,0.0,0.0,0.0,1.0,-0.0396186113358,-0.0134528838098,-0.00244345841929,1.21846967915e-07,0.0,0.0,0.0,1.21846967915e-07,0.0,0.0,0.0,1.21846967915e-07,-0.231198087335,-0.138253182173,11.5517511368,9e-08,0.0,0.0,0.0,9e-08,0.0,0.0,0.0,9e-08
3100970000000,1401,3100970000000,base_link,0.00607618084032,-0.00821611183475,0.0169829040201,-0.999803578572,1.0,0.0,0.0,0.0,1.0,0.0,0.0,0.0,1.0,0.0364954173565,-0.00517694745213,0.00149789475836,1.21846967915e-07,0.0,0.0,0.0,1.21846967915e-07,0.0,0.0,0.0,1.21846967915e-07,-0.152409374714,0.0515150241554,11.5996675491,9e-08,0.0,0.0,0.0,9e-08,0.0,0.0,0.0,9e-08
3100990000000,1402,3100990000000,base_link,0.00555415450216,-0.00826297196862,0.0169829883138,-0.99980627597,1.0,0.0,0.0,0.0,1.0,0.0,0.0,0.0,1.0,0.0561293028295,0.000597462290898,0.000708134146407,1.21846967915e-07,0.0,0.0,0.0,1.21846967915e-07,0.0,0.0,0.0,1.21846967915e-07,-0.18432508409,-0.0504343546927,11.582906723,9e-08,0.0,0.0,0.0,9e-08,0.0,0.0,0.0,9e-08
3101010000000,1403,3101006000000,base_link,0.00537467313559,-0.0083141728163,0.0169914598303,-0.999806655292,1.0,0.0,0.0,0.0,1.0,0.0,0.0,0.0,1.0,0.0106145795435,-0.00263694254681,0.00102922669612,1.21846967915e-07,0.0,0.0,0.0,1.21846967915e-07,0.0,0.0,0.0,1.21846967915e-07,-0.224318757653,-0.156566828489,11.4910812378,9e-08,0.0,0.0,0.0,9e-08,0.0,0.0,0.0,9e-08
3101030000000,1404,3101030000000,base_link,0.0057150020226,-0.00832655509941,0.016985432831,-0.999804758683,1.0,0.0,0.0,0.0,1.0,0.0,0.0,0.0,1.0,-0.039035294205,-0.0073539451696,0.000935466436204,1.21846967915e-07,0.0,0.0,0.0,1.21846967915e-07,0.0,0.0,0.0,1.21846967915e-07,-0.134400904179,-0.0756733864546,11.4955263138,9e-08,0.0,0.0,0.0,9e-08,0.0,0.0,0.0,9e-08
3101050000000,1405,3101050000000,base_link,0.00601652247016,-0.00817634447218,0.0170282118822,-0.999803536425,1.0,0.0,0.0,0.0,1.0,0.0,0.0,0.0,1.0,-0.0267669372261,-0.0206698775291,-0.00165412691422,1.21846967915e-07,0.0,0.0,0.0,1.21846967915e-07,0.0,0.0,0.0,1.21846967915e-07,-0.244949758053,-0.0930068567395,11.4487829208,9e-08,0.0,0.0,0.0,9e-08,0.0,0.0,0.0,9e-08
3101070000000,1406,3101070000000,base_link,0.00588308595937,-0.00799393908568,0.0170389171817,-0.999805559474,1.0,0.0,0.0,0.0,1.0,0.0,0.0,0.0,1.0,0.0202148482203,-0.0290061142296,-0.000164132303325,1.21846967915e-07,0.0,0.0,0.0,1.21846967915e-07,0.0,0.0,0.0,1.21846967915e-07,-0.206416860223,-0.00736841186881,11.2099237442,9e-08,0.0,0.0,0.0,9e-08,0.0,0.0,0.0,9e-08
3101090000000,1407,3101090000000,base_link,0.00554959696257,-0.00785647129468,0.0170846043655,-0.999807835403,1.0,0.0,0.0,0.0,1.0,0.0,0.0,0.0,1.0,0.0308838747442,-0.0163083095104,-0.00186402059626,1.21846967915e-07,0.0,0.0,0.0,1.21846967915e-07,0.0,0.0,0.0,1.21846967915e-07,-0.166189238429,-0.0927934721112,10.9482145309,9e-08,0.0,0.0,0.0,9e-08,0.0,0.0,0.0,9e-08
3101110000000,1408,3101110000000,base_link,0.00549899209767,-0.00788532048322,0.0171059728177,-0.999807456082,1.0,0.0,0.0,0.0,1.0,0.0,0.0,0.0,1.0,0.00350170023739,3.28451278619e-05,0.000218352040974,1.21846967915e-07,0.0,0.0,0.0,1.21846967915e-07,0.0,0.0,0.0,1.21846967915e-07,-0.172970831394,-0.0817556604743,10.7462177277,9e-08,0.0,0.0,0.0,9e-08,0.0,0.0,0.0,9e-08
3101130000000,1409,3101130000000,base_link,0.00566320346346,-0.00795133100906,0.0170595269907,-0.999806866026,1.0,0.0,0.0,0.0,1.0,0.0,0.0,0.0,1.0,-0.0216936059296,0.0025267158635,0.00627698376775,1.21846967915e-07,0.0,0.0,0.0,1.21846967915e-07,0.0,0.0,0.0,1.21846967915e-07,-0.208798363805,-0.0681532174349,10.5537252426,9e-08,0.0,0.0,0.0,9e-08,0.0,0.0,0.0,9e-08
3101150000000,1410,3101150000000,base_link,0.00592175750387,-0.00810443050641,0.0170604542213,-0.999804084334,1.0,0.0,0.0,0.0,1.0,0.0,0.0,0.0,1.0,-0.0212205946445,0.00487565621734,-0.0002909063478,1.21846967915e-07,0.0,0.0,0.0,1.21846967915e-07,0.0,0.0,0.0,1.21846967915e-07,-0.15557038784,0.0101530514658,10.3961744308,9e-08,0.0,0.0,0.0,9e-08,0.0,0.0,0.0,9e-08
3101170000000,1411,3101170000000,base_link,0.00599878613788,-0.00814114963109,0.0170837192817,-0.999802988516,1.0,0.0,0.0,0.0,1.0,0.0,0.0,0.0,1.0,-0.00813036412001,-0.00128794996999,-0.0034964219667,1.21846967915e-07,0.0,0.0,0.0,1.21846967915e-07,0.0,0.0,0.0,1.21846967915e-07,-0.123221993446,-0.171720191836,10.0902633667,9e-08,0.0,0.0,0.0,9e-08,0.0,0.0,0.0,9e-08
3101190000000,1412,3101190000000,base_link,0.00602350666394,-0.00821001618215,0.0171467288202,-0.999801176201,1.0,0.0,0.0,0.0,1.0,0.0,0.0,0.0,1.0,0.000209581048694,0.000785485666711,-0.00182263168972,1.21846967915e-07,0.0,0.0,0.0,1.21846967915e-07,0.0,0.0,0.0,1.21846967915e-07,-0.219344049692,-0.150286018848,9.94101524353,9e-08,0.0,0.0,0.0,9e-08,0.0,0.0,0.0,9e-08
3101210000000,1413,3101210000000,base_link,0.00606075896272,-0.00823075926402,0.0171659056363,-0.999800459705,1.0,0.0,0.0,0.0,1.0,0.0,0.0,0.0,1.0,-0.00463723344728,-0.00646858429536,0.000728149956558,1.21846967915e-07,0.0,0.0,0.0,1.21846967915e-07,0.0,0.0,0.0,1.21846967915e-07,-0.251319915056,-0.0993000641465,9.68749809265,9e-08,0.0,0.0,0.0,9e-08,0.0,0.0,0.0,9e-08
3101230000000,1414,3101230000000,base_link,0.00630212828419,-0.00823527597384,0.0171935539689,-0.999798436656,1.0,0.0,0.0,0.0,1.0,0.0,0.0,0.0,1.0,-0.0217434447259,-0.00739582581446,-0.00115938740782,1.21846967915e-07,0.0,0.0,0.0,1.21846967915e-07,0.0,0.0,0.0,1.21846967915e-07,-0.169283434749,-0.0700549706817,9.57229614258,9e-08,0.0,0.0,0.0,9e-08,0.0,0.0,0.0,9e-08
3101250000000,1415,3101250000000,base_link,0.00652246575203,-0.00828799871788,0.0172284515595,-0.999795992139,1.0,0.0,0.0,0.0,1.0,0.0,0.0,0.0,1.0,-0.0210781171918,-0.00124826189131,-0.00292228511535,1.21846967915e-07,0.0,0.0,0.0,1.21846967915e-07,0.0,0.0,0.0,1.21846967915e-07,-0.102412313223,-0.164385378361,9.61209487915,9e-08,0.0,0.0,0.0,9e-08,0.0,0.0,0.0,9e-08
3101270000000,1416,3101270000000,base_link,0.00665164798299,-0.00832215528124,0.0172625062131,-0.999794221971,1.0,0.0,0.0,0.0,1.0,0.0,0.0,0.0,1.0,-0.0144786611199,-0.00117268029135,-0.00185019976925,1.21846967915e-07,0.0,0.0,0.0,1.21846967915e-07,0.0,0.0,0.0,1.21846967915e-07,-0.21057087183,-0.0863059386611,9.57100009918,9e-08,0.0,0.0,0.0,9e-08,0.0,0.0,0.0,9e-08
3101290000000,1417,3101290000000,base_link,0.00686290288729,-0.0084445282443,0.0172900281052,-0.999791313839,1.0,0.0,0.0,0.0,1.0,0.0,0.0,0.0,1.0,-0.018592139706,0.00475297309458,-0.00223437324166,1.21846967915e-07,0.0,0.0,0.0,1.21846967915e-07,0.0,0.0,0.0,1.21846967915e-07,-0.237078204751,-0.136663019657,9.48241901398,9e-08,0.0,0.0,0.0,9e-08,0.0,0.0,0.0,9e-08
3101310000000,1418,3101310000000,base_link,0.00702540854049,-0.00848822736453,0.0172796178336,-0.999790007286,1.0,0.0,0.0,0.0,1.0,0.0,0.0,0.0,1.0,-0.0198650546372,-0.000364990613889,0.00435177842155,1.21846967915e-07,0.0,0.0,0.0,1.21846967915e-07,0.0,0.0,0.0,1.21846967915e-07,-0.211343362927,-0.0763856172562,9.62741088867,9e-08,0.0,0.0,0.0,9e-08,0.0,0.0,0.0,9e-08
3101330000000,1419,3101330000000,base_link,0.00719576791317,-0.00853010635007,0.01729036528,-0.999788279266,1.0,0.0,0.0,0.0,1.0,0.0,0.0,0.0,1.0,-0.0161624066532,-0.00245932582766,0.00153540004976,1.21846967915e-07,0.0,0.0,0.0,1.21846967915e-07,0.0,0.0,0.0,1.21846967915e-07,-0.193538859487,-0.0654950514436,9.77000427246,9e-08,0.0,0.0,0.0,9e-08,0.0,0.0,0.0,9e-08
3101350000000,1420,3101350000000,base_link,0.00738951347725,-0.00855079473158,0.0172828209941,-0.999786804126,1.0,0.0,0.0,0.0,1.0,0.0,0.0,0.0,1.0,-0.0185536835343,-0.00537877995521,0.00302626797929,1.21846967915e-07,0.0,0.0,0.0,1.21846967915e-07,0.0,0.0,0.0,1.21846967915e-07,-0.178122282028,-0.100192651153,9.80258083344,9e-08,0.0,0.0,0.0,9e-08,0.0,0.0,0.0,9e-08
3101370000000,1421,3101370000000,base_link,0.00757356106796,-0.00864265753338,0.0173123659349,-0.999784148875,1.0,0.0,0.0,0.0,1.0,0.0,0.0,0.0,1.0,-0.0129940854385,0.000418010080466,0.0010319177527,1.21846967915e-07,0.0,0.0,0.0,1.21846967915e-07,0.0,0.0,0.0,1.21846967915e-07,-0.227208644152,-0.135006502271,9.8733625412,9e-08,0.0,0.0,0.0,9e-08,0.0,0.0,0.0,9e-08
3101390000000,1422,3101390000000,base_link,0.00762939193628,-0.00872827017158,0.0173027143066,-0.999783095203,1.0,0.0,0.0,0.0,1.0,0.0,0.0,0.0,1.0,-0.00524688325822,0.00240087579004,0.00375035079196,1.21846967915e-07,0.0,0.0,0.0,1.21846967915e-07,0.0,0.0,0.0,1.21846967915e-07,-0.100851021707,-0.0530998259783,9.87864780426,9e-08,0.0,0.0,0.0,9e-08,0.0,0.0,0.0,9e-08
3101410000000,1423,3101410000000,base_link,0.0076406438689,-0.00881972484042,0.0172943270837,-0.999782378707,1.0,0.0,0.0,0.0,1.0,0.0,0.0,0.0,1.0,-0.00123089819681,0.00557636655867,0.00462419306859,1.21846967915e-07,0.0,0.0,0.0,1.21846967915e-07,0.0,0.0,0.0,1.21846967915e-07,-0.220051527023,-0.119843252003,9.89349842072,9e-08,0.0,0.0,0.0,9e-08,0.0,0.0,0.0,9e-08
3101430000000,1424,3101430000000,base_link,0.00774727733011,-0.00889257373359,0.0172919668602,-0.999780945714,1.0,0.0,0.0,0.0,1.0,0.0,0.0,0.0,1.0,-0.00938415154815,-0.000140856674989,0.00330194225535,1.21846967915e-07,0.0,0.0,0.0,1.21846967915e-07,0.0,0.0,0.0,1.21846967915e-07,-0.196340799332,-0.0418489016592,9.90442085266,9e-08,0.0,0.0,0.0,9e-08,0.0,0.0,0.0,9e-08
3101450000000,1425,3101450000000,base_link,0.00784907369959,-0.0089076914048,0.0172850969239,-0.999780144924,1.0,0.0,0.0,0.0,1.0,0.0,0.0,0.0,1.0,-0.0118160136044,-0.00392762199044,0.002546033822,1.21846967915e-07,0.0,0.0,0.0,1.21846967915e-07,0.0,0.0,0.0,1.21846967915e-07,-0.221260383725,-0.0876564234495,9.83038806915,9e-08,0.0,0.0,0.0,9e-08,0.0,0.0,0.0,9e-08
3101470000000,1426,3101470000000,base_link,0.00790264300259,-0.00893604767277,0.0172599352553,-0.99977993419,1.0,0.0,0.0,0.0,1.0,0.0,0.0,0.0,1.0,-0.00601063668728,-0.00367662170902,0.00315462844446,1.21846967915e-07,0.0,0.0,0.0,1.21846967915e-07,0.0,0.0,0.0,1.21846967915e-07,-0.129988014698,-0.0630005225539,9.75613975525,9e-08,0.0,0.0,0.0,9e-08,0.0,0.0,0.0,9e-08
3101490000000,1427,3101490000000,base_link,0.00785380628854,-0.00895337961756,0.0172401262365,-0.999780439952,1.0,0.0,0.0,0.0,1.0,0.0,0.0,0.0,1.0,0.00935391057283,-0.00423699012026,0.00701911794022,1.21846967915e-07,0.0,0.0,0.0,1.21846967915e-07,0.0,0.0,0.0,1.21846967915e-07,-0.225350707769,-0.117604337633,9.73954391479,9e-08,0.0,0.0,0.0,9e-08,0.0,0.0,0.0,9e-08
3101510000000,1428,3101510000000,base_link,0.00782371302711,-0.00894103890507,0.0172024048071,-0.999781493623,1.0,0.0,0.0,0.0,1.0,0.0,0.0,0.0,1.0,0.00148988468572,-0.00377501989715,0.00559933017939,1.21846967915e-07,0.0,0.0,0.0,1.21846967915e-07,0.0,0.0,0.0,1.21846967915e-07,-0.221289157867,-0.0603277236223,9.84701633453,9e-08,0.0,0.0,0.0,9e-08,0.0,0.0,0.0,9e-08
3101530000000,1429,3101530000000,base_link,0.00787030859073,-0.00892413052787,0.0171966306889,-0.999781367183,1.0,0.0,0.0,0.0,1.0,0.0,0.0,0.0,1.0,-0.00715017784387,-0.00767672946677,0.00143071403727,1.21846967915e-07,0.0,0.0,0.0,1.21846967915e-07,0.0,0.0,0.0,1.21846967915e-07,-0.179580435157,-0.128152489662,9.81855392456,9e-08,0.0,0.0,0.0,9e-08,0.0,0.0,0.0,9e-08
3101550000000,1430,3101550000000,base_link,0.00790287390476,-0.00892453853735,0.0172296738181,-0.999780524246,1.0,0.0,0.0,0.0,1.0,0.0,0.0,0.0,1.0,-0.00159955001436,-0.00395692698658,-0.00157930841669,1.21846967915e-07,0.0,0.0,0.0,1.21846967915e-07,0.0,0.0,0.0,1.21846967915e-07,-0.264033257961,-0.114682279527,9.92731285095,9e-08,0.0,0.0,0.0,9e-08,0.0,0.0,0.0,9e-08
3101570000000,1431,3101570000000,base_link,0.00793866699238,-0.00900429103493,0.0172554255425,-0.999779049106,1.0,0.0,0.0,0.0,1.0,0.0,0.0,0.0,1.0,-0.00399489607662,0.00353017845191,0.00023949133174,1.21846967915e-07,0.0,0.0,0.0,1.21846967915e-07,0.0,0.0,0.0,1.21846967915e-07,-0.193460151553,-0.0306413006037,9.84359264374,9e-08,0.0,0.0,0.0,9e-08,0.0,0.0,0.0,9e-08
3101590000000,1432,3101590000000,base_link,0.00792317921916,-0.0091218387189,0.017271989254,-0.999777826847,1.0,0.0,0.0,0.0,1.0,0.0,0.0,0.0,1.0,0.00214343541302,0.00925978459418,-0.000103184080217,1.21846967915e-07,0.0,0.0,0.0,1.21846967915e-07,0.0,0.0,0.0,1.21846967915e-07,-0.234288617969,-0.147229656577,9.90120410919,9e-08,0.0,0.0,0.0,9e-08,0.0,0.0,0.0,9e-08
3101610000000,1433,3101610000000,base_link,0.00787419602012,-0.00929371949403,0.0172673531007,-0.999776731029,1.0,0.0,0.0,0.0,1.0,0.0,0.0,0.0,1.0,0.00359458941966,0.00606413371861,0.00206586741842,1.21846967915e-07,0.0,0.0,0.0,1.21846967915e-07,0.0,0.0,0.0,1.21846967915e-07,-0.173487484455,-0.0286009144038,9.97647857666,9e-08,0.0,0.0,0.0,9e-08,0.0,0.0,0.0,9e-08
3101630000000,1434,3101630000000,base_link,0.00779851559135,-0.00942903903053,0.0172848861897,-0.999775719505,1.0,0.0,0.0,0.0,1.0,0.0,0.0,0.0,1.0,0.0109949773178,0.0105150630698,0.000141824988532,1.21846967915e-07,0.0,0.0,0.0,1.21846967915e-07,0.0,0.0,0.0,1.21846967915e-07,-0.160624325275,-0.104083590209,9.80695343018,9e-08,0.0,0.0,0.0,9e-08,0.0,0.0,0.0,9e-08
3101650000000,1435,3101650000000,base_link,0.00773780659575,-0.00958374603502,0.0172844225743,-0.999774750127,1.0,0.0,0.0,0.0,1.0,0.0,0.0,0.0,1.0,0.0055974368006,0.00696654943749,0.00131773063913,1.21846967915e-07,0.0,0.0,0.0,1.21846967915e-07,0.0,0.0,0.0,1.21846967915e-07,-0.135019898415,-0.105468735099,9.84473609924,9e-08,0.0,0.0,0.0,9e-08,0.0,0.0,0.0,9e-08
3101670000000,1436,3101670000000,base_link,0.00778776155953,-0.00964380883382,0.0172914189512,-0.999773654309,1.0,0.0,0.0,0.0,1.0,0.0,0.0,0.0,1.0,-0.00649881456047,0.00140532187652,0.00140121649019,1.21846967915e-07,0.0,0.0,0.0,1.21846967915e-07,0.0,0.0,0.0,1.21846967915e-07,-0.18804012239,-0.11423701793,9.80711936951,9e-08,0.0,0.0,0.0,9e-08,0.0,0.0,0.0,9e-08
3101690000000,1437,3101690000000,base_link,0.00789704644441,-0.009747381339,0.0172804186237,-0.999772010582,1.0,0.0,0.0,0.0,1.0,0.0,0.0,0.0,1.0,-0.0101370615885,0.00326889427379,0.00558456033468,1.21846967915e-07,0.0,0.0,0.0,1.21846967915e-07,0.0,0.0,0.0,1.21846967915e-07,-0.202362045646,-0.059030815959,9.75198936462,9e-08,0.0,0.0,0.0,9e-08,0.0,0.0,0.0,9e-08
3101710000000,1438,3101710000000,base_link,0.00793562373473,-0.00984058934144,0.0172483027251,-0.999771336233,1.0,0.0,0.0,0.0,1.0,0.0,0.0,0.0,1.0,-0.000920472317375,0.00466399360448,0.00851969048381,1.21846967915e-07,0.0,0.0,0.0,1.21846967915e-07,0.0,0.0,0.0,1.21846967915e-07,-0.153956666589,-0.196131616831,9.7632188797,9e-08,0.0,0.0,0.0,9e-08,0.0,0.0,0.0,9e-08
3101730000000,1439,3101730000000,base_link,0.00796760545485,-0.00994422959438,0.0172337199156,-0.999770324708,1.0,0.0,0.0,0.0,1.0,0.0,0.0,0.0,1.0,-0.00045603804756,0.00126089085825,0.000632245617453,1.21846967915e-07,0.0,0.0,0.0,1.21846967915e-07,0.0,0.0,0.0,1.21846967915e-07,-0.197185561061,-0.1246394068,9.87494182587,9e-08,0.0,0.0,0.0,9e-08,0.0,0.0,0.0,9e-08
3101750000000,1440,3101750000000,base_link,0.00801970496883,-0.0100100806701,0.017232750538,-0.999769271037,1.0,0.0,0.0,0.0,1.0,0.0,0.0,0.0,1.0,-0.0041576474905,0.00161921279505,0.00167308677919,1.21846967915e-07,0.0,0.0,0.0,1.21846967915e-07,0.0,0.0,0.0,1.21846967915e-07,-0.297176420689,-0.14254745841,9.79370689392,9e-08,0.0,0.0,0.0,9e-08,0.0,0.0,0.0,9e-08
3101770000000,1441,3101770000000,base_link,0.00808592450024,-0.0100871116914,0.0172039642405,-0.999768470247,1.0,0.0,0.0,0.0,1.0,0.0,0.0,0.0,1.0,-0.00703908363357,0.0059325741604,0.00382018415257,1.21846967915e-07,0.0,0.0,0.0,1.21846967915e-07,0.0,0.0,0.0,1.21846967915e-07,-0.224006175995,-0.142031908035,9.84218406677,9e-08,0.0,0.0,0.0,9e-08,0.0,0.0,0.0,9e-08
3101790000000,1442,3101790000000,base_link,0.00818195914034,-0.0102418731904,0.0171922895635,-0.999766320758,1.0,0.0,0.0,0.0,1.0,0.0,0.0,0.0,1.0,-0.00819985382259,0.00921270437539,0.00516807055101,1.21846967915e-07,0.0,0.0,0.0,1.21846967915e-07,0.0,0.0,0.0,1.21846967915e-07,-0.301208972931,-0.0573594942689,9.90606594086,9e-08,0.0,0.0,0.0,9e-08,0.0,0.0,0.0,9e-08
3101810000000,1443,3101810000000,base_link,0.00820746975517,-0.0103548241926,0.0172203593646,-0.999764466296,1.0,0.0,0.0,0.0,1.0,0.0,0.0,0.0,1.0,-0.00116223935038,0.00448245601729,0.000465367862489,1.21846967915e-07,0.0,0.0,0.0,1.21846967915e-07,0.0,0.0,0.0,1.21846967915e-07,-0.15435308218,-0.0831231251359,9.93740081787,9e-08,0.0,0.0,0.0,9e-08,0.0,0.0,0.0,9e-08
3101830000000,1444,3101830000000,base_link,0.00812818840504,-0.0105545559674,0.0233177439387,-0.99963937445,1.0,0.0,0.0,0.0,1.0,0.0,0.0,0.0,1.0,0.00196208525449,0.00571555644274,0.0094943549484,1.21846967915e-07,0.0,0.0,0.0,1.21846967915e-07,0.0,0.0,0.0,1.21846967915e-07,-0.118282854557,-0.163020521402,9.9473323822,9e-08,0.0,0.0,0.0,9e-08,0.0,0.0,0.0,9e-08
3101850000000,1445,3101850000000,base_link,0.00821948498204,-0.0107688530181,0.023275091328,-0.999637351401,1.0,0.0,0.0,0.0,1.0,0.0,0.0,0.0,1.0,-0.0102189136669,0.0161350816488,0.00328995543532,1.21846967915e-07,0.0,0.0,0.0,1.21846967915e-07,0.0,0.0,0.0,1.21846967915e-07,-0.225787445903,-0.0460869148374,9.75541114807,9e-08,0.0,0.0,0.0,9e-08,0.0,0.0,0.0,9e-08
3101870000000,1446,3101866000000,base_link,0.00825622690882,-0.0109410633124,0.0232399408563,-0.999636002702,1.0,0.0,0.0,0.0,1.0,0.0,0.0,0.0,1.0,-0.00381586211734,0.0152672510594,0.00340205081739,1.21846967915e-07,0.0,0.0,0.0,1.21846967915e-07,0.0,0.0,0.0,1.21846967915e-07,-0.17529425025,-0.0469171740115,9.81227493286,9e-08,0.0,0.0,0.0,9e-08,0.0,0.0,0.0,9e-08
3101890000000,1447,3101890000000,base_link,0.00830918763438,-0.0111124265539,0.0231295582601,-0.999636213436,1.0,0.0,0.0,0.0,1.0,0.0,0.0,0.0,1.0,-0.00323471426964,0.00809782650322,0.00815353542566,1.21846967915e-07,0.0,0.0,0.0,1.21846967915e-07,0.0,0.0,0.0,1.21846967915e-07,-0.198047161102,-0.159148275852,9.71924972534,9e-08,0.0,0.0,0.0,9e-08,0.0,0.0,0.0,9e-08
3101910000000,1448,3101910000000,base_link,0.00836013016797,-0.0112331995007,0.0230032863019,-0.999637309254,1.0,0.0,0.0,0.0,1.0,0.0,0.0,0.0,1.0,-0.00736434245482,0.00393315404654,0.0120450975373,1.21846967915e-07,0.0,0.0,0.0,1.21846967915e-07,0.0,0.0,0.0,1.21846967915e-07,-0.281260937452,-0.0863156020641,9.70120716095,9e-08,0.0,0.0,0.0,9e-08,0.0,0.0,0.0,9e-08
3101930000000,1449,3101930000000,base_link,0.00850731577101,-0.011262831781,0.0228626001216,-0.999638995128,1.0,0.0,0.0,0.0,1.0,0.0,0.0,0.0,1.0,-0.015730317682,-0.00644795224071,0.0103811919689,1.21846967915e-07,0.0,0.0,0.0,1.21846967915e-07,0.0,0.0,0.0,1.21846967915e-07,-0.193761333823,-0.073097191751,9.74580001831,9e-08,0.0,0.0,0.0,9e-08,0.0,0.0,0.0,9e-08
3101950000000,1450,3101950000000,base_link,0.00859586029051,-0.0112708773016,0.0226929169095,-0.999642029701,1.0,0.0,0.0,0.0,1.0,0.0,0.0,0.0,1.0,-0.0044069760479,-0.00231358734891,0.0134807387367,1.21846967915e-07,0.0,0.0,0.0,1.21846967915e-07,0.0,0.0,0.0,1.21846967915e-07,-0.199346512556,-0.0845439508557,9.75844764709,9e-08,0.0,0.0,0.0,9e-08,0.0,0.0,0.0,9e-08
3101970000000,1451,3101970000000,base_link,0.00853562635245,-0.0113095478582,0.0223775741889,-0.999649194666,1.0,0.0,0.0,0.0,1.0,0.0,0.0,0.0,1.0,0.0115090366453,-0.00168147939257,0.0217864215374,1.21846967915e-07,0.0,0.0,0.0,1.21846967915e-07,0.0,0.0,0.0,1.21846967915e-07,-0.228267982602,-0.0737556517124,9.79281902313,9e-08,0.0,0.0,0.0,9e-08,0.0,0.0,0.0,9e-08
3101986000000,1452,3101986000000,base_link,0.00843367016245,-0.0113578853544,0.0222147187663,-0.999653156469,1.0,0.0,0.0,0.0,1.0,0.0,0.0,0.0,1.0,0.013605043292,0.000742353731766,0.0148649755865,1.21846967915e-07,0.0,0.0,0.0,1.21846967915e-07,0.0,0.0,0.0,1.21846967915e-07,-0.279650211334,-0.0873170271516,9.80689525604,9e-08,0.0,0.0,0.0,9e-08,0.0,0.0,0.0,9e-08
3102010000000,1453,3102010000000,base_link,0.00833759115292,-0.0113248962258,0.0219052344577,-0.999661122224,1.0,0.0,0.0,0.0,1.0,0.0,0.0,0.0,1.0,0.00377479847521,-0.00973455701023,0.0215023085475,1.21846967915e-07,0.0,0.0,0.0,1.21846967915e-07,0.0,0.0,0.0,1.21846967915e-07,-0.266589939594,-0.152672216296,9.89393043518,9e-08,0.0,0.0,0.0,9e-08,0.0,0.0,0.0,9e-08
3102030000000,1454,3102030000000,base_link,0.00842943539199,-0.0112775076923,0.0216523112197,-0.999666474873,1.0,0.0,0.0,0.0,1.0,0.0,0.0,0.0,1.0,-0.0122684584931,-0.0117708062753,0.0255966298282,1.21846967915e-07,0.0,0.0,0.0,1.21846967915e-07,0.0,0.0,0.0,1.21846967915e-07,-0.237940058112,-0.0855779796839,9.83515930176,9e-08,0.0,0.0,0.0,9e-08,0.0,0.0,0.0,9e-08
3102050000000,1455,3102050000000,base_link,0.00841450108428,-0.0111579132108,0.021364574685,-0.999674103453,1.0,0.0,0.0,0.0,1.0,0.0,0.0,0.0,1.0,0.00616758968681,-0.0148067250848,0.0189343448728,1.21846967915e-07,0.0,0.0,0.0,1.21846967915e-07,0.0,0.0,0.0,1.21846967915e-07,-0.225807130337,-0.11629140377,9.87186145782,9e-08,0.0,0.0,0.0,9e-08,0.0,0.0,0.0,9e-08
3102070000000,1456,3102070000000,base_link,0.00824201197866,-0.0110677536932,0.0211736073144,-0.999680636215,1.0,0.0,0.0,0.0,1.0,0.0,0.0,0.0,1.0,0.0242615826428,-0.016480512917,0.0178919602185,1.21846967915e-07,0.0,0.0,0.0,1.21846967915e-07,0.0,0.0,0.0,1.21846967915e-07,-0.155638039112,-0.0674010142684,9.86674404144,9e-08,0.0,0.0,0.0,9e-08,0.0,0.0,0.0,9e-08
3102090000000,1457,3102090000000,base_link,0.00810384785916,-0.0110229491237,0.0209042046587,-0.999687885473,1.0,0.0,0.0,0.0,1.0,0.0,0.0,0.0,1.0,0.00818855501711,-0.0110879493877,0.0198215916753,1.21846967915e-07,0.0,0.0,0.0,1.21846967915e-07,0.0,0.0,0.0,1.21846967915e-07,-0.257091522217,-0.119378000498,9.90825843811,9e-08,0.0,0.0,0.0,9e-08,0.0,0.0,0.0,9e-08
3102110000000,1458,3102110000000,base_link,0.00822445370035,-0.0109463142993,0.0205763021773,-0.999694544675,1.0,0.0,0.0,0.0,1.0,0.0,0.0,0.0,1.0,-0.0140476133674,-0.0146299526095,0.0175179131329,1.21846967915e-07,0.0,0.0,0.0,1.21846967915e-07,0.0,0.0,0.0,1.21846967915e-07,-0.189648389816,-0.210165902972,9.87342834473,9e-08,0.0,0.0,0.0,9e-08,0.0,0.0,0.0,9e-08
3102130000000,1459,3102130000000,base_link,0.00835616894044,-0.0108666846615,0.0203479926989,-0.999699054387,1.0,0.0,0.0,0.0,1.0,0.0,0.0,0.0,1.0,-0.0134283918887,-0.0147096011788,0.0201522465795,1.21846967915e-07,0.0,0.0,0.0,1.21846967915e-07,0.0,0.0,0.0,1.21846967915e-07,-0.142826288939,-0.163399174809,9.97699451447,9e-08,0.0,0.0,0.0,9e-08,0.0,0.0,0.0,9e-08
3102150000000,1460,3102150000000,base_link,0.00831725101797,-0.010740182789,0.0200260329231,-0.999707188729,1.0,0.0,0.0,0.0,1.0,0.0,0.0,0.0,1.0,0.0103301219642,-0.0152084631845,0.0200549475849,1.21846967915e-07,0.0,0.0,0.0,1.21846967915e-07,0.0,0.0,0.0,1.21846967915e-07,-0.178808480501,-0.106898419559,9.84760189056,9e-08,0.0,0.0,0.0,9e-08,0.0,0.0,0.0,9e-08
3102170000000,1461,3102170000000,base_link,0.00807488622415,-0.0106627201742,0.0197429746885,-0.999715618099,1.0,0.0,0.0,0.0,1.0,0.0,0.0,0.0,1.0,0.0275747664273,-0.0126945758238,0.0213969126344,1.21846967915e-07,0.0,0.0,0.0,1.21846967915e-07,0.0,0.0,0.0,1.21846967915e-07,-0.230934083462,-0.155762270093,9.85881710052,9e-08,0.0,0.0,0.0,9e-08,0.0,0.0,0.0,9e-08
3102190000000,1462,3102190000000,base_link,0.00800728695968,-0.0105892894981,0.0195209450905,-0.99972135007,1.0,0.0,0.0,0.0,1.0,0.0,0.0,0.0,1.0,0.0055697709322,-0.0124301053584,0.0208337642252,1.21846967915e-07,0.0,0.0,0.0,1.21846967915e-07,0.0,0.0,0.0,1.21846967915e-07,-0.214611932635,-0.225258603692,9.81395435333,9e-08,0.0,0.0,0.0,9e-08,0.0,0.0,0.0,9e-08
3102210000000,1463,3102206000000,base_link,0.0081413164898,-0.0104738058984,0.0192811295225,-0.999726154811,1.0,0.0,0.0,0.0,1.0,0.0,0.0,0.0,1.0,-0.0216425359249,-0.0173230543733,0.0178366620094,1.21846967915e-07,0.0,0.0,0.0,1.21846967915e-07,0.0,0.0,0.0,1.21846967915e-07,-0.246007174253,-0.101068675518,9.87781143188,9e-08,0.0,0.0,0.0,9e-08,0.0,0.0,0.0,9e-08
3102230000000,1464,3102230000000,base_link,0.00835389646798,-0.0104335472616,0.0190758743703,-0.999728683622,1.0,0.0,0.0,0.0,1.0,0.0,0.0,0.0,1.0,-0.0210724771023,-0.00745471287519,0.0135032013059,1.21846967915e-07,0.0,0.0,0.0,1.21846967915e-07,0.0,0.0,0.0,1.21846967915e-07,-0.274469733238,-0.0984574183822,9.76127910614,9e-08,0.0,0.0,0.0,9e-08,0.0,0.0,0.0,9e-08
3102246000000,1465,3102246000000,base_link,0.00848932845095,-0.0104768337214,0.0189059382771,-0.999730369496,1.0,0.0,0.0,0.0,1.0,0.0,0.0,0.0,1.0,-0.0051526161842,0.00171170709655,0.0137700755149,1.21846967915e-07,0.0,0.0,0.0,1.21846967915e-07,0.0,0.0,0.0,1.21846967915e-07,-0.253904908895,-0.143604055047,9.77991008759,9e-08,0.0,0.0,0.0,9e-08,0.0,0.0,0.0,9e-08
3102270000000,1466,3102270000000,base_link,0.00851384235867,-0.0106076046086,0.0187300173314,-0.99973205537,1.0,0.0,0.0,0.0,1.0,0.0,0.0,0.0,1.0,-0.000626764376648,0.00742807239294,0.0134293315932,1.21846967915e-07,0.0,0.0,0.0,1.21846967915e-07,0.0,0.0,0.0,1.21846967915e-07,-0.167627543211,-0.127187356353,9.81102275848,9e-08,0.0,0.0,0.0,9e-08,0.0,0.0,0.0,9e-08
3102290000000,1467,3102290000000,base_link,0.00855993405342,-0.0106371717753,0.0186205619658,-0.999733446216,1.0,0.0,0.0,0.0,1.0,0.0,0.0,0.0,1.0,-0.00794335082173,-0.00201958185062,0.0140732321888,1.21846967915e-07,0.0,0.0,0.0,1.21846967915e-07,0.0,0.0,0.0,1.21846967915e-07,-0.233868092299,-0.168284624815,9.73307609558,9e-08,0.0,0.0,0.0,9e-08,0.0,0.0,0.0,9e-08
3102310000000,1468,3102310000000,base_link,0.00867203273434,-0.0106520878908,0.0184963552032,-0.999734584181,1.0,0.0,0.0,0.0,1.0,0.0,0.0,0.0,1.0,-0.0090765664354,-0.00205022329465,0.0135463215411,1.21846967915e-07,0.0,0.0,0.0,1.21846967915e-07,0.0,0.0,0.0,1.21846967915e-07,-0.122934490442,-0.103477321565,9.7132768631,9e-08,0.0,0.0,0.0,9e-08,0.0,0.0,0.0,9e-08
3102330000000,1469,3102330000000,base_link,0.0087059614413,-0.0107049751063,0.0183530137715,-0.999736396495,1.0,0.0,0.0,0.0,1.0,0.0,0.0,0.0,1.0,-0.00156748329755,0.000931618968025,0.014299608767,1.21846967915e-07,0.0,0.0,0.0,1.21846967915e-07,0.0,0.0,0.0,1.21846967915e-07,-0.352607339621,-0.143801480532,9.88999938965,9e-08,0.0,0.0,0.0,9e-08,0.0,0.0,0.0,9e-08
3102350000000,1470,3102350000000,base_link,0.00861775656613,-0.0108193544915,0.0182280483656,-0.99973820881,1.0,0.0,0.0,0.0,1.0,0.0,0.0,0.0,1.0,0.00863498449326,0.00654142396525,0.015469269827,1.21846967915e-07,0.0,0.0,0.0,1.21846967915e-07,0.0,0.0,0.0,1.21846967915e-07,-0.224847599864,-0.121919497848,9.82444953918,9e-08,0.0,0.0,0.0,9e-08,0.0,0.0,0.0,9e-08
3102370000000,1471,3102370000000,base_link,0.00864250121138,-0.0108961047258,0.0181045159526,-0.999739431068,1.0,0.0,0.0,0.0,1.0,0.0,0.0,0.0,1.0,-0.00435288017616,-0.000380211567972,0.0126863140613,1.21846967915e-07,0.0,0.0,0.0,1.21846967915e-07,0.0,0.0,0.0,1.21846967915e-07,-0.189174234867,-0.151286944747,9.83862686157,9e-08,0.0,0.0,0.0,9e-08,0.0,0.0,0.0,9e-08
3102390000000,1472,3102390000000,base_link,0.00875639500231,-0.0109395345836,0.0179645041219,-0.999740442593,1.0,0.0,0.0,0.0,1.0,0.0,0.0,0.0,1.0,-0.0082991393283,-0.000468489073683,0.0139884185046,1.21846967915e-07,0.0,0.0,0.0,1.21846967915e-07,0.0,0.0,0.0,1.21846967915e-07,-0.264517307281,-0.0897389948368,9.87194252014,9e-08,0.0,0.0,0.0,9e-08,0.0,0.0,0.0,9e-08
3102410000000,1473,3102410000000,base_link,0.00874346374003,-0.0110427852252,0.0178946667939,-0.999740737621,1.0,0.0,0.0,0.0,1.0,0.0,0.0,0.0,1.0,0.00451465789229,0.00639305636287,0.00919311121106,1.21846967915e-07,0.0,0.0,0.0,1.21846967915e-07,0.0,0.0,0.0,1.21846967915e-07,-0.131495177746,-0.16385653615,9.90004730225,9e-08,0.0,0.0,0.0,9e-08,0.0,0.0,0.0,9e-08
3102430000000,1474,3102430000000,base_link,0.00859930233802,-0.0111764731353,0.0178638153008,-0.999740990502,1.0,0.0,0.0,0.0,1.0,0.0,0.0,0.0,1.0,0.016668394208,0.00845108460635,0.00370544986799,1.21846967915e-07,0.0,0.0,0.0,1.21846967915e-07,0.0,0.0,0.0,1.21846967915e-07,-0.220622986555,-0.120239362121,9.93050384521,9e-08,0.0,0.0,0.0,9e-08,0.0,0.0,0.0,9e-08
3102446000000,1475,3102446000000,base_link,0.00851841018801,-0.0112323208377,0.0177999206785,-0.999742254907,1.0,0.0,0.0,0.0,1.0,0.0,0.0,0.0,1.0,0.00936419516802,-0.00112177571282,0.0104111786932,1.21846967915e-07,0.0,0.0,0.0,1.21846967915e-07,0.0,0.0,0.0,1.21846967915e-07,-0.0977627485991,-0.160810396075,9.81918525696,9e-08,0.0,0.0,0.0,9e-08,0.0,0.0,0.0,9e-08
3102470000000,1476,3102470000000,base_link,0.00853255448927,-0.0112291386683,0.017781418212,-0.999742465641,1.0,0.0,0.0,0.0,1.0,0.0,0.0,0.0,1.0,-0.00507387239486,-0.00899618212134,0.00389374606311,1.21846967915e-07,0.0,0.0,0.0,1.21846967915e-07,0.0,0.0,0.0,1.21846967915e-07,-0.182760223746,-0.200719118118,9.83036613464,9e-08,0.0,0.0,0.0,9e-08,0.0,0.0,0.0,9e-08
3102486000000,1477,3102490000000,base_link,0.00868796811203,-0.0112295524812,0.0177345087696,-0.999741917732,1.0,0.0,0.0,0.0,1.0,0.0,0.0,0.0,1.0,-0.0176721066236,-0.00745531497523,0.0117444116622,1.21846967915e-07,0.0,0.0,0.0,1.21846967915e-07,0.0,0.0,0.0,1.21846967915e-07,-0.21217212081,-0.204408288002,9.82888031006,9e-08,0.0,0.0,0.0,9e-08,0.0,0.0,0.0,9e-08
3102510000000,1478,3102510000000,base_link,0.00878943508577,-0.0112251523338,0.0177134774922,-0.999741454117,1.0,0.0,0.0,0.0,1.0,0.0,0.0,0.0,1.0,-0.00550803542137,-0.0086809117347,0.00616579968482,1.21846967915e-07,0.0,0.0,0.0,1.21846967915e-07,0.0,0.0,0.0,1.21846967915e-07,-0.23794990778,-0.0720940455794,9.8460111618,9e-08,0.0,0.0,0.0,9e-08,0.0,0.0,0.0,9e-08
3102530000000,1479,3102530000000,base_link,0.00877297550666,-0.0112145062209,0.017738006958,-0.999741369823,1.0,0.0,0.0,0.0,1.0,0.0,0.0,0.0,1.0,0.0069117853418,-0.00757166696712,0.000801748596132,1.21846967915e-07,0.0,0.0,0.0,1.21846967915e-07,0.0,0.0,0.0,1.21846967915e-07,-0.166597872972,-0.108168415725,9.84161090851,9e-08,0.0,0.0,0.0,9e-08,0.0,0.0,0.0,9e-08
3102550000000,1480,3102550000000,base_link,0.00882523002555,-0.0112082786948,0.0177172285617,-0.999741327676,1.0,0.0,0.0,0.0,1.0,0.0,0.0,0.0,1.0,-0.00732470629737,-0.00535269360989,0.00908411573619,1.21846967915e-07,0.0,0.0,0.0,1.21846967915e-07,0.0,0.0,0.0,1.21846967915e-07,-0.252205461264,-0.165706947446,9.78652477264,9e-08,0.0,0.0,0.0,9e-08,0.0,0.0,0.0,9e-08
3102570000000,1481,3102570000000,base_link,0.0089998542971,-0.0111575622066,0.0176927833895,-0.999740737621,1.0,0.0,0.0,0.0,1.0,0.0,0.0,0.0,1.0,-0.0174003262073,-0.0113281868398,0.00633440818638,1.21846967915e-07,0.0,0.0,0.0,1.21846967915e-07,0.0,0.0,0.0,1.21846967915e-07,-0.193177908659,-0.108258515596,9.78000545502,9e-08,0.0,0.0,0.0,9e-08,0.0,0.0,0.0,9e-08
3102590000000,1482,3102590000000,base_link,0.00913467885508,-0.011137471907,0.0177083355766,-0.999739431068,1.0,0.0,0.0,0.0,1.0,0.0,0.0,0.0,1.0,-0.0132196694613,-0.00935475993901,0.00338713126257,1.21846967915e-07,0.0,0.0,0.0,1.21846967915e-07,0.0,0.0,0.0,1.21846967915e-07,-0.213277235627,-0.168952807784,9.81536102295,9e-08,0.0,0.0,0.0,9e-08,0.0,0.0,0.0,9e-08
3102610000000,1483,3102610000000,base_link,0.00916733311378,-0.0111495644305,0.0176484870518,-0.999740105418,1.0,0.0,0.0,0.0,1.0,0.0,0.0,0.0,1.0,0.000494188047014,-0.00339448661543,0.00999462231994,1.21846967915e-07,0.0,0.0,0.0,1.21846967915e-07,0.0,0.0,0.0,1.21846967915e-07,-0.261988967657,-0.0213514547795,9.83025836945,9e-08,0.0,0.0,0.0,9e-08,0.0,0.0,0.0,9e-08
3102630000000,1484,3102630000000,base_link,0.00905349949736,-0.0111613117944,0.0176059187348,-0.999741706998,1.0,0.0,0.0,0.0,1.0,0.0,0.0,0.0,1.0,0.0145313888788,-0.00419159280136,0.00821409653872,1.21846967915e-07,0.0,0.0,0.0,1.21846967915e-07,0.0,0.0,0.0,1.21846967915e-07,-0.215030640364,-0.127496674657,9.78676509857,9e-08,0.0,0.0,0.0,9e-08,0.0,0.0,0.0,9e-08
3102650000000,1485,3102650000000,base_link,0.00898602486243,-0.0111915378349,0.0175608216069,-0.999742802816,1.0,0.0,0.0,0.0,1.0,0.0,0.0,0.0,1.0,0.00978637114167,-0.00275186309591,0.00958900805563,1.21846967915e-07,0.0,0.0,0.0,1.21846967915e-07,0.0,0.0,0.0,1.21846967915e-07,-0.240575671196,-0.173841759562,9.70303344727,9e-08,0.0,0.0,0.0,9e-08,0.0,0.0,0.0,9e-08
3102670000000,1486,3102670000000,base_link,0.00907844960849,-0.0112032184388,0.0175377672807,-0.999742254907,1.0,0.0,0.0,0.0,1.0,0.0,0.0,0.0,1.0,-0.0136524084955,-0.00588734121993,0.00793274026364,1.21846967915e-07,0.0,0.0,0.0,1.21846967915e-07,0.0,0.0,0.0,1.21846967915e-07,-0.200085267425,-0.14709995687,9.78754138947,9e-08,0.0,0.0,0.0,9e-08,0.0,0.0,0.0,9e-08
3102690000000,1487,3102690000000,base_link,0.00925607536127,-0.0111889973348,0.0175264719253,-0.999740990502,1.0,0.0,0.0,0.0,1.0,0.0,0.0,0.0,1.0,-0.0182321351022,-0.00864008255303,0.00602260930464,1.21846967915e-07,0.0,0.0,0.0,1.21846967915e-07,0.0,0.0,0.0,1.21846967915e-07,-0.248805359006,-0.154366180301,9.74534797668,9e-08,0.0,0.0,0.0,9e-08,0.0,0.0,0.0,9e-08
3102710000000,1488,3102710000000,base_link,0.00930423447419,-0.0111313578151,0.0175360392599,-0.999740948355,1.0,0.0,0.0,0.0,1.0,0.0,0.0,0.0,1.0,-0.00170123879798,-0.0109258946031,0.00132966111414,1.21846967915e-07,0.0,0.0,0.0,1.21846967915e-07,0.0,0.0,0.0,1.21846967915e-07,-0.20814935863,-0.166191861033,9.77300739288,9e-08,0.0,0.0,0.0,9e-08,0.0,0.0,0.0,9e-08
3102730000000,1489,3102726000000,base_link,0.00922352062511,-0.0111245866605,0.0175502427479,-0.999741580558,1.0,0.0,0.0,0.0,1.0,0.0,0.0,0.0,1.0,0.0130293266848,-0.00415996275842,0.00217563426122,1.21846967915e-07,0.0,0.0,0.0,1.21846967915e-07,0.0,0.0,0.0,1.21846967915e-07,-0.188960015774,-0.114754602313,9.77725219727,9e-08,0.0,0.0,0.0,9e-08,0.0,0.0,0.0,9e-08
3102750000000,1490,3102750000000,base_link,0.00911796417229,-0.0112085560244,0.0175642355016,-0.999741327676,1.0,0.0,0.0,0.0,1.0,0.0,0.0,0.0,1.0,0.00718672946095,-0.000820133835077,0.00353166181594,1.21846967915e-07,0.0,0.0,0.0,1.21846967915e-07,0.0,0.0,0.0,1.21846967915e-07,-0.160509303212,-0.180491283536,9.82392787933,9e-08,0.0,0.0,0.0,9e-08,0.0,0.0,0.0,9e-08
3102770000000,1491,3102770000000,base_link,0.00916177532741,-0.0112728620724,0.0175493155172,-0.999740484739,1.0,0.0,0.0,0.0,1.0,0.0,0.0,0.0,1.0,-0.00725934235379,0.00105154130142,0.00760115450248,1.21846967915e-07,0.0,0.0,0.0,1.21846967915e-07,0.0,0.0,0.0,1.21846967915e-07,-0.193467438221,-0.12972125411,9.85607337952,9e-08,0.0,0.0,0.0,9e-08,0.0,0.0,0.0,9e-08
3102790000000,1492,3102786000000,base_link,0.00924935582007,-0.0113225235723,0.0175775117589,-0.999738672425,1.0,0.0,0.0,0.0,1.0,0.0,0.0,0.0,1.0,-0.00793291721493,-0.000545224524103,0.00201295060106,1.21846967915e-07,0.0,0.0,0.0,1.21846967915e-07,0.0,0.0,0.0,1.21846967915e-07,-0.227904856205,-0.14711175859,9.78032016754,9e-08,0.0,0.0,0.0,9e-08,0.0,0.0,0.0,9e-08
3102810000000,1493,3102810000000,base_link,0.00921173646505,-0.011319272338,0.0175506642164,-0.999739473215,1.0,0.0,0.0,0.0,1.0,0.0,0.0,0.0,1.0,0.0060349907726,-0.00724871456623,0.0100277885795,1.21846967915e-07,0.0,0.0,0.0,1.21846967915e-07,0.0,0.0,0.0,1.21846967915e-07,-0.233503386378,-0.117781482637,9.71106719971,9e-08,0.0,0.0,0.0,9e-08,0.0,0.0,0.0,9e-08
3102830000000,1494,3102830000000,base_link,0.00909147282005,-0.011329511635,0.0175582506491,-0.999740316152,1.0,0.0,0.0,0.0,1.0,0.0,0.0,0.0,1.0,0.0119999945164,-0.00707629835233,0.00281027401797,1.21846967915e-07,0.0,0.0,0.0,1.21846967915e-07,0.0,0.0,0.0,1.21846967915e-07,-0.212475866079,-0.146961390972,9.80536365509,9e-08,0.0,0.0,0.0,9e-08,0.0,0.0,0.0,9e-08
3102846000000,1495,3102846000000,base_link,0.00909931913091,-0.0114384173629,0.0175344798265,-0.999739473215,1.0,0.0,0.0,0.0,1.0,0.0,0.0,0.0,1.0,-0.00323699763976,0.00629725353792,0.00625315960497,1.21846967915e-07,0.0,0.0,0.0,1.21846967915e-07,0.0,0.0,0.0,1.21846967915e-07,-0.241219043732,-0.163726225495,9.79648113251,9e-08,0.0,0.0,0.0,9e-08,0.0,0.0,0.0,9e-08
3102870000000,1496,3102870000000,base_link,0.00923961010221,-0.0115535520986,0.017544089308,-0.999736691523,1.0,0.0,0.0,0.0,1.0,0.0,0.0,0.0,1.0,-0.0144882136956,0.00565713830292,0.00273569510318,1.21846967915e-07,0.0,0.0,0.0,1.21846967915e-07,0.0,0.0,0.0,1.21846967915e-07,-0.279086828232,-0.142853289843,9.74976921082,9e-08,0.0,0.0,0.0,9e-08,0.0,0.0,0.0,9e-08
3102890000000,1497,3102886000000,base_link,0.00937195639257,-0.0116337497311,0.0175430777836,-0.999734499887,1.0,0.0,0.0,0.0,1.0,0.0,0.0,0.0,1.0,-0.0101761082187,0.00227276328951,0.00347362179309,1.21846967915e-07,0.0,0.0,0.0,1.21846967915e-07,0.0,0.0,0.0,1.21846967915e-07,-0.276011556387,-0.219849452376,9.7548084259,9e-08,0.0,0.0,0.0,9e-08,0.0,0.0,0.0,9e-08
3102910000000,1498,3102910000000,base_link,0.00939489209838,-0.0116878321226,0.0175646569701,-0.999733319775,1.0,0.0,0.0,0.0,1.0,0.0,0.0,0.0,1.0,-0.00126974703744,0.00151766522322,0.00046322849812,1.21846967915e-07,0.0,0.0,0.0,1.21846967915e-07,0.0,0.0,0.0,1.21846967915e-07,-0.202369883657,-0.132893770933,9.73672962189,9e-08,0.0,0.0,0.0,9e-08,0.0,0.0,0.0,9e-08
3102930000000,1499,3102930000000,base_link,0.00937318449576,-0.0118013711227,0.0175611587816,-0.999732266104,1.0,0.0,0.0,0.0,1.0,0.0,0.0,0.0,1.0,0.00339341163635,0.00362771726213,0.00582670699805,1.21846967915e-07,0.0,0.0,0.0,1.21846967915e-07,0.0,0.0,0.0,1.21846967915e-07,-0.21307747066,-0.194222554564,9.78210735321,9e-08,0.0,0.0,0.0,9e-08,0.0,0.0,0.0,9e-08
3102950000000,1500,3102950000000,base_link,0.00946512208353,-0.0118232445139,0.0175170731781,-0.999731928929,1.0,0.0,0.0,0.0,1.0,0.0,0.0,0.0,1.0,-0.0144661692902,-0.00412156712264,0.00945848412812,1.21846967915e-07,0.0,0.0,0.0,1.21846967915e-07,0.0,0.0,0.0,1.21846967915e-07,-0.195504128933,-0.11664455384,9.76342201233,9e-08,0.0,0.0,0.0,9e-08,0.0,0.0,0.0,9e-08
3102970000000,1501,3102970000000,base_link,0.00970580841203,-0.0118848011386,0.0174775394342,-0.999729568706,1.0,0.0,0.0,0.0,1.0,0.0,0.0,0.0,1.0,-0.0209510382265,-0.00141103006899,0.00910682231188,1.21846967915e-07,0.0,0.0,0.0,1.21846967915e-07,0.0,0.0,0.0,1.21846967915e-07,-0.225565552711,-0.178223848343,9.81963253021,9e-08,0.0,0.0,0.0,9e-08,0.0,0.0,0.0,9e-08
3102990000000,1502,3102990000000,base_link,0.00984228550513,-0.0118775857957,0.0174663283725,-0.999728472888,1.0,0.0,0.0,0.0,1.0,0.0,0.0,0.0,1.0,-0.0114213638008,-0.00890145637095,0.00495068542659,1.21846967915e-07,0.0,0.0,0.0,1.21846967915e-07,0.0,0.0,0.0,1.21846967915e-07,-0.127617239952,-0.0849261432886,9.8216342926,9e-08,0.0,0.0,0.0,9e-08,0.0,0.0,0.0,9e-08
3103010000000,1503,3103010000000,base_link,0.00984871034767,-0.0118529706367,0.0174286912368,-0.999729357971,1.0,0.0,0.0,0.0,1.0,0.0,0.0,0.0,1.0,-2.87336297333e-06,-0.0090569704771,0.00935035012662,1.21846967915e-07,0.0,0.0,0.0,1.21846967915e-07,0.0,0.0,0.0,1.21846967915e-07,-0.229606404901,-0.100490942597,9.77703380585,9e-08,0.0,0.0,0.0,9e-08,0.0,0.0,0.0,9e-08
3103030000000,1504,3103030000000,base_link,0.00973605437346,-0.011885876871,0.0174185759931,-0.999730285202,1.0,0.0,0.0,0.0,1.0,0.0,0.0,0.0,1.0,0.00831975135952,-0.00099343364127,0.0067371125333,1.21846967915e-07,0.0,0.0,0.0,1.21846967915e-07,0.0,0.0,0.0,1.21846967915e-07,-0.238153114915,-0.155762031674,9.73089599609,9e-08,0.0,0.0,0.0,9e-08,0.0,0.0,0.0,9e-08
3103050000000,1505,3103050000000,base_link,0.00974189327602,-0.0118475769926,0.0173963224571,-0.999731043845,1.0,0.0,0.0,0.0,1.0,0.0,0.0,0.0,1.0,-0.000779264024459,-0.0115983663127,0.00286512542516,1.21846967915e-07,0.0,0.0,0.0,1.21846967915e-07,0.0,0.0,0.0,1.21846967915e-07,-0.355688095093,-0.146879091859,9.71595478058,9e-08,0.0,0.0,0.0,9e-08,0.0,0.0,0.0,9e-08
3103066000000,1506,3103066000000,base_link,0.00985475817348,-0.0117427674116,0.0173634479153,-0.999731718195,1.0,0.0,0.0,0.0,1.0,0.0,0.0,0.0,1.0,-0.0119004687294,-0.01617526263,0.00584077648818,1.21846967915e-07,0.0,0.0,0.0,1.21846967915e-07,0.0,0.0,0.0,1.21846967915e-07,-0.20790861547,-0.121705763042,9.82573318481,9e-08,0.0,0.0,0.0,9e-08,0.0,0.0,0.0,9e-08
3103090000000,1507,3103090000000,base_link,0.00993521272066,-0.0116430214616,0.017333186478,-0.999732645426,1.0,0.0,0.0,0.0,1.0,0.0,0.0,0.0,1.0,-0.00676444824785,-0.0164544172585,0.00283326255158,1.21846967915e-07,0.0,0.0,0.0,1.21846967915e-07,0.0,0.0,0.0,1.21846967915e-07,-0.111137472093,-0.147355109453,9.6462430954,9e-08,0.0,0.0,0.0,9e-08,0.0,0.0,0.0,9e-08
3103110000000,1508,3103110000000,base_link,0.00991567979664,-0.0115884391525,0.0173635743558,-0.999732940454,1.0,0.0,0.0,0.0,1.0,0.0,0.0,0.0,1.0,0.00477139186114,-0.0121332416311,-0.00191017298494,1.21846967915e-07,0.0,0.0,0.0,1.21846967915e-07,0.0,0.0,0.0,1.21846967915e-07,-0.225735470653,-0.231184929609,9.72005271912,9e-08,0.0,0.0,0.0,9e-08,0.0,0.0,0.0,9e-08
3103130000000,1509,3103130000000,base_link,0.0098530347625,-0.011654300518,0.0173449033019,-0.999733151188,1.0,0.0,0.0,0.0,1.0,0.0,0.0,0.0,1.0,0.00594486668706,0.00180774449836,0.00565625960007,1.21846967915e-07,0.0,0.0,0.0,1.21846967915e-07,0.0,0.0,0.0,1.21846967915e-07,-0.288521587849,-0.234647572041,9.71398448944,9e-08,0.0,0.0,0.0,9e-08,0.0,0.0,0.0,9e-08
3103150000000,1510,3103150000000,base_link,0.00985185621479,-0.0117627902104,0.0173038944183,-0.999732603279,1.0,0.0,0.0,0.0,1.0,0.0,0.0,0.0,1.0,-0.000502941547893,0.00710473814979,0.0071872593835,1.21846967915e-07,0.0,0.0,0.0,1.21846967915e-07,0.0,0.0,0.0,1.21846967915e-07,-0.211651295424,-0.239124312997,9.79166793823,9e-08,0.0,0.0,0.0,9e-08,0.0,0.0,0.0,9e-08
3103170000000,1511,3103170000000,base_link,0.00994192444165,-0.0118429847148,0.0172801235958,-0.999731170286,1.0,0.0,0.0,0.0,1.0,0.0,0.0,0.0,1.0,-0.0153415938839,-1.37177994475e-05,0.00322679709643,1.21846967915e-07,0.0,0.0,0.0,1.21846967915e-07,0.0,0.0,0.0,1.21846967915e-07,-0.225197732449,-0.194240659475,9.76499652863,9e-08,0.0,0.0,0.0,9e-08,0.0,0.0,0.0,9e-08
3103190000000,1512,3103186000000,base_link,0.0102345711666,-0.0118452961237,0.0172523909694,-0.999728641475,1.0,0.0,0.0,0.0,1.0,0.0,0.0,0.0,1.0,-0.0274751745164,-0.00797040015459,0.00463621784002,1.21846967915e-07,0.0,0.0,0.0,1.21846967915e-07,0.0,0.0,0.0,1.21846967915e-07,-0.223127514124,-0.213645130396,9.82145023346,9e-08,0.0,0.0,0.0,9e-08,0.0,0.0,0.0,9e-08
3103210000000,1513,3103210000000,base_link,0.0104072029294,-0.0118224964073,0.0172414749357,-0.999727334923,1.0,0.0,0.0,0.0,1.0,0.0,0.0,0.0,1.0,-0.0209554862231,-0.00944863259792,0.00233709509484,1.21846967915e-07,0.0,0.0,0.0,1.21846967915e-07,0.0,0.0,0.0,1.21846967915e-07,-0.20853805542,-0.207212284207,9.7865896225,9e-08,0.0,0.0,0.0,9e-08,0.0,0.0,0.0,9e-08
3103230000000,1514,3103230000000,base_link,0.0104562244887,-0.0117814906518,0.017198822325,-0.999728009272,1.0,0.0,0.0,0.0,1.0,0.0,0.0,0.0,1.0,-0.00132200738881,-0.009775782004,0.00503766164184,1.21846967915e-07,0.0,0.0,0.0,1.21846967915e-07,0.0,0.0,0.0,1.21846967915e-07,-0.231920897961,-0.133909150958,9.81879806519,9e-08,0.0,0.0,0.0,9e-08,0.0,0.0,0.0,9e-08
3103246000000,1515,3103246000000,base_link,0.0104098285464,-0.0117728902252,0.0171840287812,-0.999728894356,1.0,0.0,0.0,0.0,1.0,0.0,0.0,0.0,1.0,0.00416491227224,-0.00459794234484,0.00388106284663,1.21846967915e-07,0.0,0.0,0.0,1.21846967915e-07,0.0,0.0,0.0,1.21846967915e-07,-0.287902861834,-0.19046227634,9.76586437225,9e-08,0.0,0.0,0.0,9e-08,0.0,0.0,0.0,9e-08
3103270000000,1516,3103270000000,base_link,0.0104978486587,-0.0117951051952,0.0171511120925,-0.999728262153,1.0,0.0,0.0,0.0,1.0,0.0,0.0,0.0,1.0,-0.0109593030065,-0.00364164425991,0.00477721588686,1.21846967915e-07,0.0,0.0,0.0,1.21846967915e-07,0.0,0.0,0.0,1.21846967915e-07,-0.263039559126,-0.240096822381,9.80938720703,9e-08,0.0,0.0,0.0,9e-08,0.0,0.0,0.0,9e-08
3103290000000,1517,3103290000000,base_link,0.0107881643418,-0.0118747703533,0.0170498753624,-0.999725986224,1.0,0.0,0.0,0.0,1.0,0.0,0.0,0.0,1.0,-0.0245923679322,0.000672298599966,0.00928681343794,1.21846967915e-07,0.0,0.0,0.0,1.21846967915e-07,0.0,0.0,0.0,1.21846967915e-07,-0.27665707469,-0.208341032267,9.69528865814,9e-08,0.0,0.0,0.0,9e-08,0.0,0.0,0.0,9e-08
3103310000000,1518,3103310000000,base_link,0.0108993548487,-0.0119828488258,0.0170288019381,-0.999723794587,1.0,0.0,0.0,0.0,1.0,0.0,0.0,0.0,1.0,-0.00650348886847,0.0041567273438,0.00190020224545,1.21846967915e-07,0.0,0.0,0.0,1.21846967915e-07,0.0,0.0,0.0,1.21846967915e-07,-0.219942063093,-0.186918392777,9.65850830078,9e-08,0.0,0.0,0.0,9e-08,0.0,0.0,0.0,9e-08
3103330000000,1519,3103330000000,base_link,0.0108385109338,-0.0120726054788,0.0170135447789,-0.999723626,1.0,0.0,0.0,0.0,1.0,0.0,0.0,0.0,1.0,0.00741656403989,0.0017196808476,0.00267342478037,1.21846967915e-07,0.0,0.0,0.0,1.21846967915e-07,0.0,0.0,0.0,1.21846967915e-07,-0.208057761192,-0.133885294199,9.52205562592,9e-08,0.0,0.0,0.0,9e-08,0.0,0.0,0.0,9e-08
3103350000000,1520,3103350000000,base_link,0.0108071519498,-0.012166763267,0.0170056633183,-0.999722993797,1.0,0.0,0.0,0.0,1.0,0.0,0.0,0.0,1.0,0.000752560910769,0.00528494827449,0.00225651101209,1.21846967915e-07,0.0,0.0,0.0,1.21846967915e-07,0.0,0.0,0.0,1.21846967915e-07,-0.2167173177,-0.117286190391,9.36205863953,9e-08,0.0,0.0,0.0,9e-08,0.0,0.0,0.0,9e-08
3103370000000,1521,3103370000000,base_link,0.0108662625756,-0.0122226898301,0.0170039352975,-0.999721687245,1.0,0.0,0.0,0.0,1.0,0.0,0.0,0.0,1.0,-0.00711587630212,0.00187542405911,0.00146479869727,1.21846967915e-07,0.0,0.0,0.0,1.21846967915e-07,0.0,0.0,0.0,1.21846967915e-07,-0.227653324604,-0.21960324049,9.21016025543,9e-08,0.0,0.0,0.0,9e-08,0.0,0.0,0.0,9e-08
3103390000000,1522,3103390000000,base_link,0.0111029645864,-0.0122901826985,0.0169226340267,-0.999719622049,1.0,0.0,0.0,0.0,1.0,0.0,0.0,0.0,1.0,-0.0209319200367,0.0022882076446,0.00884613208473,1.21846967915e-07,0.0,0.0,0.0,1.21846967915e-07,0.0,0.0,0.0,1.21846967915e-07,-0.267572879791,-0.132552593946,8.89221477509,9e-08,0.0,0.0,0.0,9e-08,0.0,0.0,0.0,9e-08
3103410000000,1523,3103410000000,base_link,0.0112668539239,-0.0124218744779,0.016923940579,-0.999716208155,1.0,0.0,0.0,0.0,1.0,0.0,0.0,0.0,1.0,-0.0168544091284,0.00664616096765,0.000413425266743,1.21846967915e-07,0.0,0.0,0.0,1.21846967915e-07,0.0,0.0,0.0,1.21846967915e-07,-0.205622702837,-0.179167017341,8.69440078735,9e-08,0.0,0.0,0.0,9e-08,0.0,0.0,0.0,9e-08
3103430000000,1524,3103430000000,base_link,0.0113695479307,-0.0125328281145,0.0169006333718,-0.999713974372,1.0,0.0,0.0,0.0,1.0,0.0,0.0,0.0,1.0,-0.0129077546299,0.00777974631637,0.00463647022843,1.21846967915e-07,0.0,0.0,0.0,1.21846967915e-07,0.0,0.0,0.0,1.21846967915e-07,-0.178027436137,-0.179725363851,8.5377779007,9e-08,0.0,0.0,0.0,9e-08,0.0,0.0,0.0,9e-08
3103450000000,1525,3103450000000,base_link,0.0115322054607,-0.0127437628839,0.0168377924206,-0.999710560477,1.0,0.0,0.0,0.0,1.0,0.0,0.0,0.0,1.0,-0.0145396925509,0.0124294999987,0.00711650587618,1.21846967915e-07,0.0,0.0,0.0,1.21846967915e-07,0.0,0.0,0.0,1.21846967915e-07,-0.263480186462,-0.238920360804,8.42597198486,9e-08,0.0,0.0,0.0,9e-08,0.0,0.0,0.0,9e-08
3103470000000,1526,3103470000000,base_link,0.0117513842195,-0.0128781988183,0.0168369073368,-0.999706303645,1.0,0.0,0.0,0.0,1.0,0.0,0.0,0.0,1.0,-0.0318475924432,0.00920204631984,-0.000594069308136,1.21846967915e-07,0.0,0.0,0.0,1.21846967915e-07,0.0,0.0,0.0,1.21846967915e-07,-0.221860647202,-0.248010739684,8.39224243164,9e-08,0.0,0.0,0.0,9e-08,0.0,0.0,0.0,9e-08
3103490000000,1527,3103490000000,base_link,0.0121054508388,-0.013007817335,0.0168270871211,-0.999700529527,1.0,0.0,0.0,0.0,1.0,0.0,0.0,0.0,1.0,-0.0352349132299,0.00488711288199,0.00377624458633,1.21846967915e-07,0.0,0.0,0.0,1.21846967915e-07,0.0,0.0,0.0,1.21846967915e-07,-0.297931492329,-0.19098187983,8.31117343903,9e-08,0.0,0.0,0.0,9e-08,0.0,0.0,0.0,9e-08
3103510000000,1528,3103510000000,base_link,0.0124573744309,-0.0131530922123,0.0168012089561,-0.999694713262,1.0,0.0,0.0,0.0,1.0,0.0,0.0,0.0,1.0,-0.0279154106975,0.000406784296501,0.00595431216061,1.21846967915e-07,0.0,0.0,0.0,1.21846967915e-07,0.0,0.0,0.0,1.21846967915e-07,-0.210766986012,-0.169151559472,8.36817836761,9e-08,0.0,0.0,0.0,9e-08,0.0,0.0,0.0,9e-08
3103530000000,1529,3103530000000,base_link,0.0126603764554,-0.0132205175387,0.0167964885091,-0.999691425808,1.0,0.0,0.0,0.0,1.0,0.0,0.0,0.0,1.0,-0.0208512209356,-4.21573531639e-05,0.00302975811064,1.21846967915e-07,0.0,0.0,0.0,1.21846967915e-07,0.0,0.0,0.0,1.21846967915e-07,-0.198923066258,-0.147739499807,8.43188762665,9e-08,0.0,0.0,0.0,9e-08,0.0,0.0,0.0,9e-08
3103550000000,1530,3103550000000,base_link,0.0127681373242,-0.0132687342537,0.0167845188041,-0.999689571346,1.0,0.0,0.0,0.0,1.0,0.0,0.0,0.0,1.0,-0.0113353505731,-0.00030845409492,0.00299380533397,1.21846967915e-07,0.0,0.0,0.0,1.21846967915e-07,0.0,0.0,0.0,1.21846967915e-07,-0.263747394085,-0.227013364434,8.59381389618,9e-08,0.0,0.0,0.0,9e-08,0.0,0.0,0.0,9e-08
3103570000000,1531,3103570000000,base_link,0.0129948595046,-0.0133703412916,0.0167669857151,-0.999685609543,1.0,0.0,0.0,0.0,1.0,0.0,0.0,0.0,1.0,-0.0244479365647,0.00294336397201,0.00535147078335,1.21846967915e-07,0.0,0.0,0.0,1.21846967915e-07,0.0,0.0,0.0,1.21846967915e-07,-0.170910596848,-0.193457230926,8.65663909912,9e-08,0.0,0.0,0.0,9e-08,0.0,0.0,0.0,9e-08
3103590000000,1532,3103590000000,base_link,0.0132349290341,-0.0134251969687,0.0167578819959,-0.99968190062,1.0,0.0,0.0,0.0,1.0,0.0,0.0,0.0,1.0,-0.0219518095255,-0.000694121001288,0.00206477800384,1.21846967915e-07,0.0,0.0,0.0,1.21846967915e-07,0.0,0.0,0.0,1.21846967915e-07,-0.279076963663,-0.225733458996,8.66720104218,9e-08,0.0,0.0,0.0,9e-08,0.0,0.0,0.0,9e-08
3103610000000,1533,3103606000000,base_link,0.013372725799,-0.0134681917447,0.0167314980687,-0.999679877571,1.0,0.0,0.0,0.0,1.0,0.0,0.0,0.0,1.0,-0.00834591966122,-0.00317859021015,0.00214772950858,1.21846967915e-07,0.0,0.0,0.0,1.21846967915e-07,0.0,0.0,0.0,1.21846967915e-07,-0.255455315113,-0.197148114443,8.7347869873,9e-08,0.0,0.0,0.0,9e-08,0.0,0.0,0.0,9e-08
3103630000000,1534,3103630000000,base_link,0.0134293769604,-0.0134403189783,0.0167765109029,-0.999678781753,1.0,0.0,0.0,0.0,1.0,0.0,0.0,0.0,1.0,-0.0043289558962,-0.0100570591167,-0.00518318638206,1.21846967915e-07,0.0,0.0,0.0,1.21846967915e-07,0.0,0.0,0.0,1.21846967915e-07,-0.205373674631,-0.1656909585,8.68853473663,9e-08,0.0,0.0,0.0,9e-08,0.0,0.0,0.0,9e-08
3103646000000,1535,3103646000000,base_link,0.0135460244564,-0.0134686302994,0.0167516442623,-0.999677180173,1.0,0.0,0.0,0.0,1.0,0.0,0.0,0.0,1.0,-0.0130644366145,-0.00710164103657,0.00476800044999,1.21846967915e-07,0.0,0.0,0.0,1.21846967915e-07,0.0,0.0,0.0,1.21846967915e-07,-0.207569241524,-0.256204307079,8.76757144928,9e-08,0.0,0.0,0.0,9e-08,0.0,0.0,0.0,9e-08
3103670000000,1536,3103670000000,base_link,0.0138253792682,-0.0135460854387,0.0166821441091,-0.999673513397,1.0,0.0,0.0,0.0,1.0,0.0,0.0,0.0,1.0,-0.024239776656,0.00259236432612,0.00678110634908,1.21846967915e-07,0.0,0.0,0.0,1.21846967915e-07,0.0,0.0,0.0,1.21846967915e-07,-0.219845190644,-0.16848950088,8.71121692657,9e-08,0.0,0.0,0.0,9e-08,0.0,0.0,0.0,9e-08
3103690000000,1537,3103690000000,base_link,0.0140998221149,-0.01360937846,0.0165878194621,-0.99967039453,1.0,0.0,0.0,0.0,1.0,0.0,0.0,0.0,1.0,-0.0329515077174,0.00109726202209,0.0119117796421,1.21846967915e-07,0.0,0.0,0.0,1.21846967915e-07,0.0,0.0,0.0,1.21846967915e-07,-0.217156052589,-0.252224445343,8.76741409302,9e-08,0.0,0.0,0.0,9e-08,0.0,0.0,0.0,9e-08
3103710000000,1538,3103710000000,base_link,0.0145773269959,-0.0138801856059,0.0162912320892,-0.999664704706,1.0,0.0,0.0,0.0,1.0,0.0,0.0,0.0,1.0,-0.0404097251594,0.0182044859976,0.0278895385563,1.21846967915e-07,0.0,0.0,0.0,1.21846967915e-07,0.0,0.0,0.0,1.21846967915e-07,-0.28992909193,-0.195087611675,8.74599075317,9e-08,0.0,0.0,0.0,9e-08,0.0,0.0,0.0,9e-08
3103730000000,1539,3103726000000,base_link,0.015065290531,-0.0142710813269,0.0159675864394,-0.99965716042,1.0,0.0,0.0,0.0,1.0,0.0,0.0,0.0,1.0,-0.0628043115139,0.0421720743179,0.0414497815073,1.21846967915e-07,0.0,0.0,0.0,1.21846967915e-07,0.0,0.0,0.0,1.21846967915e-07,-0.316297233105,-0.21726706624,8.70339393616,9e-08,0.0,0.0,0.0,9e-08,0.0,0.0,0.0,9e-08
3103750000000,1540,3103750000000,base_link,0.0163698734987,-0.0154339671661,0.0152121463267,-0.999631197961,1.0,0.0,0.0,0.0,1.0,0.0,0.0,0.0,1.0,-0.121098980308,0.100453294814,0.0664398744702,1.21846967915e-07,0.0,0.0,0.0,1.21846967915e-07,0.0,0.0,0.0,1.21846967915e-07,-0.232397466898,-0.2774130404,8.69536399841,9e-08,0.0,0.0,0.0,9e-08,0.0,0.0,0.0,9e-08
3103770000000,1541,3103770000000,base_link,0.017843828228,-0.0168072638613,0.0143560595398,-0.999596468958,1.0,0.0,0.0,0.0,1.0,0.0,0.0,0.0,1.0,-0.151055425406,0.12543977797,0.0867556408048,1.21846967915e-07,0.0,0.0,0.0,1.21846967915e-07,0.0,0.0,0.0,1.21846967915e-07,-0.281570523977,-0.19223575294,8.80212306976,9e-08,0.0,0.0,0.0,9e-08,0.0,0.0,0.0,9e-08
3103790000000,1542,3103790000000,base_link,0.0190861541677,-0.0181324607126,0.0135619286201,-0.999561487074,1.0,0.0,0.0,0.0,1.0,0.0,0.0,0.0,1.0,-0.159002825618,0.156465113163,0.100883513689,1.21846967915e-07,0.0,0.0,0.0,1.21846967915e-07,0.0,0.0,0.0,1.21846967915e-07,-0.280120223761,-0.248298317194,8.85190200806,9e-08,0.0,0.0,0.0,9e-08,0.0,0.0,0.0,9e-08
3103810000000,1543,3103810000000,base_link,0.0207781746333,-0.0200719707654,0.0123248343226,-0.999506696171,1.0,0.0,0.0,0.0,1.0,0.0,0.0,0.0,1.0,-0.185390621424,0.196910694242,0.131205558777,1.21846967915e-07,0.0,0.0,0.0,1.21846967915e-07,0.0,0.0,0.0,1.21846967915e-07,-0.295442223549,-0.274839431047,8.8355884552,9e-08,0.0,0.0,0.0,9e-08,0.0,0.0,0.0,9e-08
3103830000000,1544,3103830000000,base_link,0.0234422194903,-0.0232093105312,0.0104386785581,-0.999401244756,1.0,0.0,0.0,0.0,1.0,0.0,0.0,0.0,1.0,-0.239092171192,0.266337573528,0.167395845056,1.21846967915e-07,0.0,0.0,0.0,1.21846967915e-07,0.0,0.0,0.0,1.21846967915e-07,-0.33540058136,-0.370642989874,8.7562379837,9e-08,0.0,0.0,0.0,9e-08,0.0,0.0,0.0,9e-08
3103846000000,1545,3103850000000,base_link,0.0255641846291,-0.0258410041423,0.00898119838973,-0.999298785767,1.0,0.0,0.0,0.0,1.0,0.0,0.0,0.0,1.0,-0.278031349182,0.32765352726,0.188268989325,1.21846967915e-07,0.0,0.0,0.0,1.21846967915e-07,0.0,0.0,0.0,1.21846967915e-07,-0.347780942917,-0.2827681005,8.65966415405,9e-08,0.0,0.0,0.0,9e-08,0.0,0.0,0.0,9e-08
3103870000000,1546,3103866000000,base_link,0.0287245603024,-0.030281828403,0.00650473386493,-0.999107439075,1.0,0.0,0.0,0.0,1.0,0.0,0.0,0.0,1.0,-0.271641969681,0.366407692432,0.216464355588,1.21846967915e-07,0.0,0.0,0.0,1.21846967915e-07,0.0,0.0,0.0,1.21846967915e-07,-0.304424077272,-0.242449045181,8.62638664246,9e-08,0.0,0.0,0.0,9e-08,0.0,0.0,0.0,9e-08
3103890000000,1547,3103890000000,base_link,0.0307471783428,-0.0335524067253,0.00462165482031,-0.998953223756,1.0,0.0,0.0,0.0,1.0,0.0,0.0,0.0,1.0,-0.261741161346,0.40657377243,0.245137020946,1.21846967915e-07,0.0,0.0,0.0,1.21846967915e-07,0.0,0.0,0.0,1.21846967915e-07,-0.395891070366,-0.366105437279,8.66934871674,9e-08,0.0,0.0,0.0,9e-08,0.0,0.0,0.0,9e-08
3103910000000,1548,3103910000000,base_link,0.0333738804129,-0.038053721921,0.00205183502606,-0.998716147733,1.0,0.0,0.0,0.0,1.0,0.0,0.0,0.0,1.0,-0.279131799936,0.448158919811,0.271316885948,1.21846967915e-07,0.0,0.0,0.0,1.21846967915e-07,0.0,0.0,0.0,1.21846967915e-07,-0.396710216999,-0.282811939716,8.66623783112,9e-08,0.0,0.0,0.0,9e-08,0.0,0.0,0.0,9e-08
3103930000000,1549,3103930000000,base_link,0.0361040829598,-0.0430221312117,-0.000791096346549,-0.998421246234,1.0,0.0,0.0,0.0,1.0,0.0,0.0,0.0,1.0,-0.286698818207,0.496568232775,0.297611773014,1.21846967915e-07,0.0,0.0,0.0,1.21846967915e-07,0.0,0.0,0.0,1.21846967915e-07,-0.36580529809,-0.216930985451,8.70938205719,9e-08,0.0,0.0,0.0,9e-08,0.0,0.0,0.0,9e-08
3103950000000,1550,3103950000000,base_link,0.0393081150303,-0.0495622766612,-0.00450908058794,-0.997987091548,1.0,0.0,0.0,0.0,1.0,0.0,0.0,0.0,1.0,-0.278834223747,0.539983212948,0.322675704956,1.21846967915e-07,0.0,0.0,0.0,1.21846967915e-07,0.0,0.0,0.0,1.21846967915e-07,-0.303670495749,-0.312053978443,8.68595123291,9e-08,0.0,0.0,0.0,9e-08,0.0,0.0,0.0,9e-08
3103970000000,1551,3103970000000,base_link,0.0417266990904,-0.0555806908828,-0.0078456358503,-0.9975510824,1.0,0.0,0.0,0.0,1.0,0.0,0.0,0.0,1.0,-0.252997159958,0.590533018112,0.347610086203,1.21846967915e-07,0.0,0.0,0.0,1.21846967915e-07,0.0,0.0,0.0,1.21846967915e-07,-0.396428823471,-0.209018215537,8.88750553131,9e-08,0.0,0.0,0.0,9e-08,0.0,0.0,0.0,9e-08
3103990000000,1552,3103990000000,base_link,0.043462948393,-0.0606215916005,-0.0106947628096,-0.997156756485,1.0,0.0,0.0,0.0,1.0,0.0,0.0,0.0,1.0,-0.230211287737,0.613470673561,0.370679318905,1.21846967915e-07,0.0,0.0,0.0,1.21846967915e-07,0.0,0.0,0.0,1.21846967915e-07,-0.42238470912,-0.279005408287,8.77367687225,9e-08,0.0,0.0,0.0,9e-08,0.0,0.0,0.0,9e-08
3104010000000,1553,3104010000000,base_link,0.0455221525321,-0.0670612257066,-0.0144352534681,-0.996605349266,1.0,0.0,0.0,0.0,1.0,0.0,0.0,0.0,1.0,-0.220891535282,0.627851247787,0.391938984394,1.21846967915e-07,0.0,0.0,0.0,1.21846967915e-07,0.0,0.0,0.0,1.21846967915e-07,-0.356746256351,-0.34637016058,8.873087883,9e-08,0.0,0.0,0.0,9e-08,0.0,0.0,0.0,9e-08
3104030000000,1554,3104030000000,base_link,0.0473887363539,-0.0736913833244,-0.0184252534698,-0.99598423116,1.0,0.0,0.0,0.0,1.0,0.0,0.0,0.0,1.0,-0.198357060552,0.654739737511,0.423024833202,1.21846967915e-07,0.0,0.0,0.0,1.21846967915e-07,0.0,0.0,0.0,1.21846967915e-07,-0.328879743814,-0.337826997042,8.93519306183,9e-08,0.0,0.0,0.0,9e-08,0.0,0.0,0.0,9e-08
3104050000000,1555,3104050000000,base_link,0.0495184653414,-0.082240622615,-0.0234644571183,-0.995104921459,1.0,0.0,0.0,0.0,1.0,0.0,0.0,0.0,1.0,-0.195012241602,0.703672409058,0.446374505758,1.21846967915e-07,0.0,0.0,0.0,1.21846967915e-07,0.0,0.0,0.0,1.21846967915e-07,-0.434512585402,-0.302920728922,8.88816833496,9e-08,0.0,0.0,0.0,9e-08,0.0,0.0,0.0,9e-08
3104070000000,1556,3104066000000,base_link,0.051182442677,-0.0897793464315,-0.0278892861561,-0.994254650937,1.0,0.0,0.0,0.0,1.0,0.0,0.0,0.0,1.0,-0.18752732873,0.735632538795,0.464858591557,1.21846967915e-07,0.0,0.0,0.0,1.21846967915e-07,0.0,0.0,0.0,1.21846967915e-07,-0.449017882347,-0.244435757399,8.96106338501,9e-08,0.0,0.0,0.0,9e-08,0.0,0.0,0.0,9e-08
3104090000000,1557,3104090000000,base_link,0.052376991048,-0.0958429173793,-0.0315209536517,-0.993517628997,1.0,0.0,0.0,0.0,1.0,0.0,0.0,0.0,1.0,-0.17081952095,0.736366450787,0.479720056057,1.21846967915e-07,0.0,0.0,0.0,1.21846967915e-07,0.0,0.0,0.0,1.21846967915e-07,-0.544837415218,-0.364725619555,8.92728328705,9e-08,0.0,0.0,0.0,9e-08,0.0,0.0,0.0,9e-08
3104110000000,1558,3104110000000,base_link,0.053554493653,-0.103343303369,-0.0362267757285,-0.992542055895,1.0,0.0,0.0,0.0,1.0,0.0,0.0,0.0,1.0,-0.131733268499,0.722400307655,0.500288307667,1.21846967915e-07,0.0,0.0,0.0,1.21846967915e-07,0.0,0.0,0.0,1.21846967915e-07,-0.442457556725,-0.309100449085,8.9977722168,9e-08,0.0,0.0,0.0,9e-08,0.0,0.0,0.0,9e-08
3104130000000,1559,3104126000000,base_link,0.0546536571203,-0.112192977249,-0.0420700148061,-0.991290041613,1.0,0.0,0.0,0.0,1.0,0.0,0.0,0.0,1.0,-0.11533536762,0.711000263691,0.524344801903,1.21846967915e-07,0.0,0.0,0.0,1.21846967915e-07,0.0,0.0,0.0,1.21846967915e-07,-0.565755963326,-0.309839695692,8.88393783569,9e-08,0.0,0.0,0.0,9e-08,0.0,0.0,0.0,9e-08
3104150000000,1560,3104150000000,base_link,0.0554493790835,-0.119462897686,-0.0471572658619,-0.990166785953,1.0,0.0,0.0,0.0,1.0,0.0,0.0,0.0,1.0,-0.109555952251,0.700830221176,0.54235714674,1.21846967915e-07,0.0,0.0,0.0,1.21846967915e-07,0.0,0.0,0.0,1.21846967915e-07,-0.544561862946,-0.339129149914,9.05822181702,9e-08,0.0,0.0,0.0,9e-08,0.0,0.0,0.0,9e-08
3104170000000,1561,3104166000000,base_link,0.0562588303826,-0.126581489862,-0.0523672485405,-0.988974156581,1.0,0.0,0.0,0.0,1.0,0.0,0.0,0.0,1.0,-0.114862188697,0.684827387333,0.5535582304,1.21846967915e-07,0.0,0.0,0.0,1.21846967915e-07,0.0,0.0,0.0,1.21846967915e-07,-0.570498943329,-0.32481995225,8.99432086945,9e-08,0.0,0.0,0.0,9e-08,0.0,0.0,0.0,9e-08
3104190000000,1562,3104186000000,base_link,0.056775013373,-0.132111398731,-0.0566081487314,-0.987987245976,1.0,0.0,0.0,0.0,1.0,0.0,0.0,0.0,1.0,-0.0936763435602,0.65889954567,0.564543604851,1.21846967915e-07,0.0,0.0,0.0,1.21846967915e-07,0.0,0.0,0.0,1.21846967915e-07,-0.582108020782,-0.300553917885,9.08552455902,9e-08,0.0,0.0,0.0,9e-08,0.0,0.0,0.0,9e-08
3104210000000,1563,3104210000000,base_link,0.0571978516307,-0.139997474483,-0.0630126152437,-0.986487998281,1.0,0.0,0.0,0.0,1.0,0.0,0.0,0.0,1.0,-0.0691707283258,0.621411681175,0.567138910294,1.21846967915e-07,0.0,0.0,0.0,1.21846967915e-07,0.0,0.0,0.0,1.21846967915e-07,-0.65517193079,-0.326869636774,9.053647995,9e-08,0.0,0.0,0.0,9e-08,0.0,0.0,0.0,9e-08
3104230000000,1564,3104230000000,base_link,0.0573041328118,-0.144891980098,-0.0672525882039,-0.985494681355,1.0,0.0,0.0,0.0,1.0,0.0,0.0,0.0,1.0,-0.0539512522519,0.58345001936,0.563107669353,1.21846967915e-07,0.0,0.0,0.0,1.21846967915e-07,0.0,0.0,0.0,1.21846967915e-07,-0.597921669483,-0.447841316462,8.98548221588,9e-08,0.0,0.0,0.0,9e-08,0.0,0.0,0.0,9e-08
3104250000000,1565,3104246000000,base_link,0.0573761591417,-0.150655901441,-0.0725194691281,-0.984251897233,1.0,0.0,0.0,0.0,1.0,0.0,0.0,0.0,1.0,-0.0498217120767,0.537466943264,0.554985821247,1.21846967915e-07,0.0,0.0,0.0,1.21846967915e-07,0.0,0.0,0.0,1.21846967915e-07,-0.683924257755,-0.44794267416,9.09264278412,9e-08,0.0,0.0,0.0,9e-08,0.0,0.0,0.0,9e-08
3104270000000,1566,3104266000000,base_link,0.0574425456964,-0.15605634046,-0.0777521268113,-0.983006331419,1.0,0.0,0.0,0.0,1.0,0.0,0.0,0.0,1.0,-0.052482187748,0.509445905685,0.555615723133,1.21846967915e-07,0.0,0.0,0.0,1.21846967915e-07,0.0,0.0,0.0,1.21846967915e-07,-0.718204498291,-0.393297284842,9.06329917908,9e-08,0.0,0.0,0.0,9e-08,0.0,0.0,0.0,9e-08
3104290000000,1567,3104290000000,base_link,0.0574383573534,-0.162070922281,-0.0838597952164,-0.981530180197,1.0,0.0,0.0,0.0,1.0,0.0,0.0,0.0,1.0,-0.0457734875381,0.475578159094,0.537554979324,1.21846967915e-07,0.0,0.0,0.0,1.21846967915e-07,0.0,0.0,0.0,1.21846967915e-07,-0.779659867287,-0.410149514675,9.09886455536,9e-08,0.0,0.0,0.0,9e-08,0.0,0.0,0.0,9e-08
3104310000000,1568,3104310000000,base_link,0.057422578627,-0.165867441907,-0.0878434310439,-0.980547990039,1.0,0.0,0.0,0.0,1.0,0.0,0.0,0.0,1.0,-0.0449343919754,0.449465095997,0.526282608509,1.21846967915e-07,0.0,0.0,0.0,1.21846967915e-07,0.0,0.0,0.0,1.21846967915e-07,-0.846362292767,-0.409980475903,9.0699634552,9e-08,0.0,0.0,0.0,9e-08,0.0,0.0,0.0,9e-08
3104330000000,1569,3104330000000,base_link,0.0574660531012,-0.170258869567,-0.0927344885199,-0.979341494354,1.0,0.0,0.0,0.0,1.0,0.0,0.0,0.0,1.0,-0.0549921505153,0.41167652607,0.512672901154,1.21846967915e-07,0.0,0.0,0.0,1.21846967915e-07,0.0,0.0,0.0,1.21846967915e-07,-0.839354217052,-0.386549115181,9.04125118256,9e-08,0.0,0.0,0.0,9e-08,0.0,0.0,0.0,9e-08
3104350000000,1570,3104350000000,base_link,0.057532676732,-0.174282808318,-0.0974390461912,-0.978172382923,1.0,0.0,0.0,0.0,1.0,0.0,0.0,0.0,1.0,-0.054008167237,0.372504889965,0.488829642534,1.21846967915e-07,0.0,0.0,0.0,1.21846967915e-07,0.0,0.0,0.0,1.21846967915e-07,-0.794046342373,-0.358720093966,8.99512672424,9e-08,0.0,0.0,0.0,9e-08,0.0,0.0,0.0,9e-08
3104370000000,1571,3104370000000,base_link,0.057461211482,-0.178081572263,-0.102003929207,-0.977026283671,1.0,0.0,0.0,0.0,1.0,0.0,0.0,0.0,1.0,-0.0361250191927,0.350927174091,0.47763672471,1.21846967915e-07,0.0,0.0,0.0,1.21846967915e-07,0.0,0.0,0.0,1.21846967915e-07,-0.850400984287,-0.32859992981,9.13224887848,9e-08,0.0,0.0,0.0,9e-08,0.0,0.0,0.0,9e-08
3104390000000,1572,3104390000000,base_link,0.0572910383128,-0.181627960879,-0.106412658148,-0.975912595346,1.0,0.0,0.0,0.0,1.0,0.0,0.0,0.0,1.0,-0.0305349454284,0.320200204849,0.458840787411,1.21846967915e-07,0.0,0.0,0.0,1.21846967915e-07,0.0,0.0,0.0,1.21846967915e-07,-0.853598177433,-0.447906047106,9.08314704895,9e-08,0.0,0.0,0.0,9e-08,0.0,0.0,0.0,9e-08
3104406000000,1573,3104406000000,base_link,0.0572020610472,-0.184755030499,-0.110645086823,-0.974859556336,1.0,0.0,0.0,0.0,1.0,0.0,0.0,0.0,1.0,-0.0448761694133,0.280088424683,0.440885514021,1.21846967915e-07,0.0,0.0,0.0,1.21846967915e-07,0.0,0.0,0.0,1.21846967915e-07,-0.924991667271,-0.3922277987,9.14712429047,9e-08,0.0,0.0,0.0,9e-08,0.0,0.0,0.0,9e-08
3104430000000,1574,3104430000000,base_link,0.0571363435737,-0.188094483358,-0.11558667837,-0.973650742574,1.0,0.0,0.0,0.0,1.0,0.0,0.0,0.0,1.0,-0.0409763976932,0.255625724792,0.423887699842,1.21846967915e-07,0.0,0.0,0.0,1.21846967915e-07,0.0,0.0,0.0,1.21846967915e-07,-1.02240800858,-0.463076770306,9.15827274323,9e-08,0.0,0.0,0.0,9e-08,0.0,0.0,0.0,9e-08
3104450000000,1575,3104450000000,base_link,0.0569799734973,-0.190141645352,-0.118733994282,-0.972883122022,1.0,0.0,0.0,0.0,1.0,0.0,0.0,0.0,1.0,-0.0246581099927,0.22993260622,0.41004127264,1.21846967915e-07,0.0,0.0,0.0,1.21846967915e-07,0.0,0.0,0.0,1.21846967915e-07,-1.0455545187,-0.374262809753,9.18845081329,9e-08,0.0,0.0,0.0,9e-08,0.0,0.0,0.0,9e-08
3104470000000,1576,3104470000000,base_link,0.0565784193981,-0.192890252078,-0.123206912874,-0.971808756707,1.0,0.0,0.0,0.0,1.0,0.0,0.0,0.0,1.0,-0.010448794812,0.202960819006,0.389540463686,1.21846967915e-07,0.0,0.0,0.0,1.21846967915e-07,0.0,0.0,0.0,1.21846967915e-07,-1.1136302948,-0.440664201975,9.10846614838,9e-08,0.0,0.0,0.0,9e-08,0.0,0.0,0.0,9e-08
3104490000000,1577,3104490000000,base_link,0.0562090865646,-0.194960104881,-0.126739408835,-0.970962532283,1.0,0.0,0.0,0.0,1.0,0.0,0.0,0.0,1.0,-0.0103355310857,0.183729991317,0.370280981064,1.21846967915e-07,0.0,0.0,0.0,1.21846967915e-07,0.0,0.0,0.0,1.21846967915e-07,-1.1012045145,-0.401111632586,9.13282394409,9e-08,0.0,0.0,0.0,9e-08,0.0,0.0,0.0,9e-08
3104510000000,1578,3104510000000,base_link,0.0560157800439,-0.196413475732,-0.1294553939,-0.970322195213,1.0,0.0,0.0,0.0,1.0,0.0,0.0,0.0,1.0,-0.0234817489982,0.162596344948,0.354312896729,1.21846967915e-07,0.0,0.0,0.0,1.21846967915e-07,0.0,0.0,0.0,1.21846967915e-07,-1.14386940002,-0.51983165741,9.19763565063,9e-08,0.0,0.0,0.0,9e-08,0.0,0.0,0.0,9e-08
3104530000000,1579,3104530000000,base_link,0.0557593586176,-0.198059310166,-0.132726200079,-0.969560390926,1.0,0.0,0.0,0.0,1.0,0.0,0.0,0.0,1.0,-0.0196987930685,0.143396854401,0.341429620981,1.21846967915e-07,0.0,0.0,0.0,1.21846967915e-07,0.0,0.0,0.0,1.21846967915e-07,-1.38730823994,-0.4427973032,9.21906471252,9e-08,0.0,0.0,0.0,9e-08,0.0,0.0,0.0,9e-08
3104550000000,1580,3104550000000,base_link,0.05544198758,-0.199542399813,-0.135823234801,-0.968845243201,1.0,0.0,0.0,0.0,1.0,0.0,0.0,0.0,1.0,-0.0120036518201,0.127253741026,0.323271900415,1.21846967915e-07,0.0,0.0,0.0,1.21846967915e-07,0.0,0.0,0.0,1.21846967915e-07,-1.37614107132,-0.326422721148,9.22276210785,9e-08,0.0,0.0,0.0,9e-08,0.0,0.0,0.0,9e-08
3104570000000,1581,3104570000000,base_link,0.054985247451,-0.201161887199,-0.139288295805,-0.968044115904,1.0,0.0,0.0,0.0,1.0,0.0,0.0,0.0,1.0,-0.00514312507585,0.11534422636,0.300893574953,1.21846967915e-07,0.0,0.0,0.0,1.21846967915e-07,0.0,0.0,0.0,1.21846967915e-07,-1.41316342354,-0.444647848606,9.26682186127,9e-08,0.0,0.0,0.0,9e-08,0.0,0.0,0.0,9e-08
3104590000000,1582,3104586000000,base_link,0.0547494305652,-0.202208756964,-0.141478836109,-0.967521494983,1.0,0.0,0.0,0.0,1.0,0.0,0.0,0.0,1.0,-0.012488136068,0.115305438638,0.284610152245,1.21846967915e-07,0.0,0.0,0.0,1.21846967915e-07,0.0,0.0,0.0,1.21846967915e-07,-1.36232924461,-0.408875256777,9.33214569092,9e-08,0.0,0.0,0.0,9e-08,0.0,0.0,0.0,9e-08
3104610000000,1583,3104610000000,base_link,0.0544889999199,-0.20380439977,-0.144579874782,-0.966742663369,1.0,0.0,0.0,0.0,1.0,0.0,0.0,0.0,1.0,-0.0146189313382,0.118568144739,0.268250226974,1.21846967915e-07,0.0,0.0,0.0,1.21846967915e-07,0.0,0.0,0.0,1.21846967915e-07,-1.48885440826,-0.330096930265,9.23261356354,9e-08,0.0,0.0,0.0,9e-08,0.0,0.0,0.0,9e-08
3104630000000,1584,3104630000000,base_link,0.0543020997202,-0.204879734463,-0.146569922528,-0.966226069447,1.0,0.0,0.0,0.0,1.0,0.0,0.0,0.0,1.0,-0.00681699160486,0.119843930006,0.260690152645,1.21846967915e-07,0.0,0.0,0.0,1.21846967915e-07,0.0,0.0,0.0,1.21846967915e-07,-1.46359503269,-0.444921463728,9.15274620056,9e-08,0.0,0.0,0.0,9e-08,0.0,0.0,0.0,9e-08
3104650000000,1585,3104650000000,base_link,0.0539721847268,-0.20620781327,-0.148897819412,-0.965605962865,1.0,0.0,0.0,0.0,1.0,0.0,0.0,0.0,1.0,0.00731396861374,0.115051411092,0.243931114674,1.21846967915e-07,0.0,0.0,0.0,1.21846967915e-07,0.0,0.0,0.0,1.21846967915e-07,-1.49270391464,-0.366633415222,9.16805839539,9e-08,0.0,0.0,0.0,9e-08,0.0,0.0,0.0,9e-08
3104670000000,1586,3104670000000,base_link,0.0536076935125,-0.207461118299,-0.151137629383,-0.965009542811,1.0,0.0,0.0,0.0,1.0,0.0,0.0,0.0,1.0,0.00218158820644,0.106498375535,0.237073153257,1.21846967915e-07,0.0,0.0,0.0,1.21846967915e-07,0.0,0.0,0.0,1.21846967915e-07,-1.53031170368,-0.416724652052,9.12365341187,9e-08,0.0,0.0,0.0,9e-08,0.0,0.0,0.0,9e-08
3104690000000,1587,3104686000000,base_link,0.0533373267477,-0.208715066068,-0.153279026462,-0.964416283772,1.0,0.0,0.0,0.0,1.0,0.0,0.0,0.0,1.0,-0.00145529489964,0.113164491951,0.226576328278,1.21846967915e-07,0.0,0.0,0.0,1.21846967915e-07,0.0,0.0,0.0,1.21846967915e-07,-1.62017905712,-0.403137624264,9.19206905365,9e-08,0.0,0.0,0.0,9e-08,0.0,0.0,0.0,9e-08
3104710000000,1588,3104706000000,base_link,0.0531963455394,-0.20995256076,-0.155299251351,-0.963832086305,1.0,0.0,0.0,0.0,1.0,0.0,0.0,0.0,1.0,-0.0124749084935,0.112481206656,0.211924538016,1.21846967915e-07,0.0,0.0,0.0,1.21846967915e-07,0.0,0.0,0.0,1.21846967915e-07,-1.67566895485,-0.406335026026,9.1551027298,9e-08,0.0,0.0,0.0,9e-08,0.0,0.0,0.0,9e-08
3104730000000,1589,3104730000000,base_link,0.0529547545354,-0.211387265825,-0.157550735999,-0.963166166098,1.0,0.0,0.0,0.0,1.0,0.0,0.0,0.0,1.0,-0.000199394547963,0.109338626266,0.198199614882,1.21846967915e-07,0.0,0.0,0.0,1.21846967915e-07,0.0,0.0,0.0,1.21846967915e-07,-1.69890725613,-0.345892608166,9.09783554077,9e-08,0.0,0.0,0.0,9e-08,0.0,0.0,0.0,9e-08
3104750000000,1590,3104750000000,base_link,0.0526954144398,-0.212573562634,-0.159310114043,-0.962629805304,1.0,0.0,0.0,0.0,1.0,0.0,0.0,0.0,1.0,0.006342086941,0.105860188603,0.190019845963,1.21846967915e-07,0.0,0.0,0.0,1.21846967915e-07,0.0,0.0,0.0,1.21846967915e-07,-1.78282225132,-0.367644906044,9.12259483337,9e-08,0.0,0.0,0.0,9e-08,0.0,0.0,0.0,9e-08
3104770000000,1591,3104770000000,base_link,0.052434636083,-0.213503611871,-0.160623831311,-0.962219800762,1.0,0.0,0.0,0.0,1.0,0.0,0.0,0.0,1.0,0.0135824130848,0.102668210864,0.176488161087,1.21846967915e-07,0.0,0.0,0.0,1.21846967915e-07,0.0,0.0,0.0,1.21846967915e-07,-1.82997834682,-0.432506531477,9.18500900269,9e-08,0.0,0.0,0.0,9e-08,0.0,0.0,0.0,9e-08
3104790000000,1592,3104786000000,base_link,0.0521357148282,-0.214887645888,-0.162515971928,-0.961610020157,1.0,0.0,0.0,0.0,1.0,0.0,0.0,0.0,1.0,0.00625549489632,0.102115131915,0.169147953391,1.21846967915e-07,0.0,0.0,0.0,1.21846967915e-07,0.0,0.0,0.0,1.21846967915e-07,-1.84825134277,-0.391782492399,9.22963809967,9e-08,0.0,0.0,0.0,9e-08,0.0,0.0,0.0,9e-08
3104810000000,1593,3104810000000,base_link,0.0520555778642,-0.215816114619,-0.163705608874,-0.961204567475,1.0,0.0,0.0,0.0,1.0,0.0,0.0,0.0,1.0,-0.00472035910934,0.107460431755,0.159381181002,1.21846967915e-07,0.0,0.0,0.0,1.21846967915e-07,0.0,0.0,0.0,1.21846967915e-07,-1.93927884102,-0.434491723776,9.13014698029,9e-08,0.0,0.0,0.0,9e-08,0.0,0.0,0.0,9e-08
3104830000000,1594,3104830000000,base_link,0.05198005598,-0.216951692963,-0.165141678444,-0.960707276809,1.0,0.0,0.0,0.0,1.0,0.0,0.0,0.0,1.0,-0.00538205727935,0.104773245752,0.151471212506,1.21846967915e-07,0.0,0.0,0.0,1.21846967915e-07,0.0,0.0,0.0,1.21846967915e-07,-1.912525177,-0.367829620838,9.12198448181,9e-08,0.0,0.0,0.0,9e-08,0.0,0.0,0.0,9e-08
3104850000000,1595,3104846000000,base_link,0.0518439480011,-0.218334778676,-0.166759232343,-0.960121730643,1.0,0.0,0.0,0.0,1.0,0.0,0.0,0.0,1.0,0.0018075077096,0.103945687413,0.144811138511,1.21846967915e-07,0.0,0.0,0.0,1.21846967915e-07,0.0,0.0,0.0,1.21846967915e-07,-1.93010509014,-0.406680047512,9.09467411041,9e-08,0.0,0.0,0.0,9e-08,0.0,0.0,0.0,9e-08
3104870000000,1596,3104866000000,base_link,0.0516855390709,-0.219469055736,-0.167972345083,-0.959659927624,1.0,0.0,0.0,0.0,1.0,0.0,0.0,0.0,1.0,0.0094232019037,0.10381026566,0.131560713053,1.21846967915e-07,0.0,0.0,0.0,1.21846967915e-07,0.0,0.0,0.0,1.21846967915e-07,-1.9865489006,-0.414127349854,9.25786685944,9e-08,0.0,0.0,0.0,9e-08,0.0,0.0,0.0,9e-08
3104886000000,1597,3104886000000,base_link,0.0515618117288,-0.220313346674,-0.168929879335,-0.959305009012,1.0,0.0,0.0,0.0,1.0,0.0,0.0,0.0,1.0,0.00777054717764,0.0955694615841,0.129998639226,1.21846967915e-07,0.0,0.0,0.0,1.21846967915e-07,0.0,0.0,0.0,1.21846967915e-07,-2.11301779747,-0.421131908894,9.32166671753,9e-08,0.0,0.0,0.0,9e-08,0.0,0.0,0.0,9e-08
3104910000000,1598,3104910000000,base_link,0.0514028917681,-0.22122513579,-0.170035433318,-0.958908280727,1.0,0.0,0.0,0.0,1.0,0.0,0.0,0.0,1.0,0.00928774755448,0.0789577141404,0.11833538115,1.21846967915e-07,0.0,0.0,0.0,1.21846967915e-07,0.0,0.0,0.0,1.21846967915e-07,-2.06209921837,-0.356909364462,9.26641082764,9e-08,0.0,0.0,0.0,9e-08,0.0,0.0,0.0,9e-08
3104930000000,1599,3104930000000,base_link,0.0511959770837,-0.22196411229,-0.17105500773,-0.958567186282,1.0,0.0,0.0,0.0,1.0,0.0,0.0,0.0,1.0,0.0131398588419,0.0626011192799,0.109945952892,1.21846967915e-07,0.0,0.0,0.0,1.21846967915e-07,0.0,0.0,0.0,1.21846967915e-07,-2.12413573265,-0.361024349928,9.47253894806,9e-08,0.0,0.0,0.0,9e-08,0.0,0.0,0.0,9e-08
3104950000000,1600,3104950000000,base_link,0.0509706916417,-0.222540628494,-0.171996020417,-0.958277173818,1.0,0.0,0.0,0.0,1.0,0.0,0.0,0.0,1.0,0.0122834611684,0.0442195124924,0.101409271359,1.21846967915e-07,0.0,0.0,0.0,1.21846967915e-07,0.0,0.0,0.0,1.21846967915e-07,-2.1616768837,-0.368226975203,9.4970331192,9e-08,0.0,0.0,0.0,9e-08,0.0,0.0,0.0,9e-08
3104970000000,1601,3104970000000,base_link,0.0507773377058,-0.22287159189,-0.172947485522,-0.958039170564,1.0,0.0,0.0,0.0,1.0,0.0,0.0,0.0,1.0,0.00436235498637,0.0193399172276,0.0986066907644,1.21846967915e-07,0.0,0.0,0.0,1.21846967915e-07,0.0,0.0,0.0,1.21846967915e-07,-2.19162106514,-0.336101531982,9.62019729614,9e-08,0.0,0.0,0.0,9e-08,0.0,0.0,0.0,9e-08
3104990000000,1602,3104990000000,base_link,0.0505016973165,-0.222943852662,-0.173772847256,-0.957887652644,1.0,0.0,0.0,0.0,1.0,0.0,0.0,0.0,1.0,0.0125262653455,-0.00861940998584,0.0859423205256,1.21846967915e-07,0.0,0.0,0.0,1.21846967915e-07,0.0,0.0,0.0,1.21846967915e-07,-2.20474290848,-0.361265063286,9.65909099579,9e-08,0.0,0.0,0.0,9e-08,0.0,0.0,0.0,9e-08
3105010000000,1603,3105010000000,base_link,0.0501010177645,-0.222899124319,-0.174576039748,-0.957772971069,1.0,0.0,0.0,0.0,1.0,0.0,0.0,0.0,1.0,0.0235244873911,-0.0205340273678,0.0859032943845,1.21846967915e-07,0.0,0.0,0.0,1.21846967915e-07,0.0,0.0,0.0,1.21846967915e-07,-2.27738022804,-0.388055622578,9.71627902985,9e-08,0.0,0.0,0.0,9e-08,0.0,0.0,0.0,9e-08
3105030000000,1604,3105030000000,base_link,0.0497039786464,-0.222742859609,-0.175507695835,-0.957659722487,1.0,0.0,0.0,0.0,1.0,0.0,0.0,0.0,1.0,0.0118184015155,-0.0265547763556,0.0773985087872,1.21846967915e-07,0.0,0.0,0.0,1.21846967915e-07,0.0,0.0,0.0,1.21846967915e-07,-2.33368182182,-0.323646008968,9.80515193939,9e-08,0.0,0.0,0.0,9e-08,0.0,0.0,0.0,9e-08
3105050000000,1605,3105050000000,base_link,0.0495089704467,-0.222459121757,-0.1762336753,-0.95760244492,1.0,0.0,0.0,0.0,1.0,0.0,0.0,0.0,1.0,-0.00135637342464,-0.0402111411095,0.0694505125284,1.21846967915e-07,0.0,0.0,0.0,1.21846967915e-07,0.0,0.0,0.0,1.21846967915e-07,-2.46336007118,-0.453183859587,9.86451053619,9e-08,0.0,0.0,0.0,9e-08,0.0,0.0,0.0,9e-08
3105070000000,1606,3105070000000,base_link,0.0493428539117,-0.222188512648,-0.176764514857,-0.95757610314,1.0,0.0,0.0,0.0,1.0,0.0,0.0,0.0,1.0,0.00406764820218,-0.0445989668369,0.0633076801896,1.21846967915e-07,0.0,0.0,0.0,1.21846967915e-07,0.0,0.0,0.0,1.21846967915e-07,-2.45387434959,-0.340683609247,9.82116413116,9e-08,0.0,0.0,0.0,9e-08,0.0,0.0,0.0,9e-08
3105090000000,1607,3105090000000,base_link,0.0489626840697,-0.221919431362,-0.177556074819,-0.957511576315,1.0,0.0,0.0,0.0,1.0,0.0,0.0,0.0,1.0,0.0227559320629,-0.0331648811698,0.0671433806419,1.21846967915e-07,0.0,0.0,0.0,1.21846967915e-07,0.0,0.0,0.0,1.21846967915e-07,-2.63646197319,-0.373318582773,9.89588546753,9e-08,0.0,0.0,0.0,9e-08,0.0,0.0,0.0,9e-08
3105110000000,1608,3105110000000,base_link,0.0484792175705,-0.221917661194,-0.178103562381,-0.95743486905,1.0,0.0,0.0,0.0,1.0,0.0,0.0,0.0,1.0,0.0409232228994,-0.0120313558728,0.0615421980619,1.21846967915e-07,0.0,0.0,0.0,1.21846967915e-07,0.0,0.0,0.0,1.21846967915e-07,-2.59310173988,-0.360381871462,9.81453037262,9e-08,0.0,0.0,0.0,9e-08,0.0,0.0,0.0,9e-08
3105130000000,1609,3105130000000,base_link,0.0481012867799,-0.222169088219,-0.178595921866,-0.957303960939,1.0,0.0,0.0,0.0,1.0,0.0,0.0,0.0,1.0,0.0321856439114,0.0155458943918,0.0551940202713,1.21846967915e-07,0.0,0.0,0.0,1.21846967915e-07,0.0,0.0,0.0,1.21846967915e-07,-2.68120455742,-0.355423957109,9.82262992859,9e-08,0.0,0.0,0.0,9e-08,0.0,0.0,0.0,9e-08
3105150000000,1610,3105150000000,base_link,0.0478940296523,-0.222521119771,-0.178992565857,-0.957158427871,1.0,0.0,0.0,0.0,1.0,0.0,0.0,0.0,1.0,0.0240113008767,0.0350288487971,0.0554038025439,1.21846967915e-07,0.0,0.0,0.0,1.21846967915e-07,0.0,0.0,0.0,1.21846967915e-07,-2.65415000916,-0.270271271467,9.7646522522,9e-08,0.0,0.0,0.0,9e-08,0.0,0.0,0.0,9e-08
3105170000000,1611,3105170000000,base_link,0.0476368285093,-0.223378850285,-0.179512278646,-0.956874147378,1.0,0.0,0.0,0.0,1.0,0.0,0.0,0.0,1.0,0.024822819978,0.0635962411761,0.0482153333724,1.21846967915e-07,0.0,0.0,0.0,1.21846967915e-07,0.0,0.0,0.0,1.21846967915e-07,-2.68395423889,-0.295556157827,9.74918556213,9e-08,0.0,0.0,0.0,9e-08,0.0,0.0,0.0,9e-08
3105190000000,1612,3105190000000,base_link,0.0474485321952,-0.224413940006,-0.179900240387,-0.956568371992,1.0,0.0,0.0,0.0,1.0,0.0,0.0,0.0,1.0,0.0314425528049,0.0931225866079,0.0489236526191,1.21846967915e-07,0.0,0.0,0.0,1.21846967915e-07,0.0,0.0,0.0,1.21846967915e-07,-2.79166078568,-0.380670756102,9.64855861664,9e-08,0.0,0.0,0.0,9e-08,0.0,0.0,0.0,9e-08
3105210000000,1613,3105210000000,base_link,0.0473512256587,-0.225643416261,-0.1802323997,-0.956221376988,1.0,0.0,0.0,0.0,1.0,0.0,0.0,0.0,1.0,0.024430513382,0.120244696736,0.0412563830614,1.21846967915e-07,0.0,0.0,0.0,1.21846967915e-07,0.0,0.0,0.0,1.21846967915e-07,-2.74443292618,-0.367067605257,9.64420795441,9e-08,0.0,0.0,0.0,9e-08,0.0,0.0,0.0,9e-08
3105230000000,1614,3105230000000,base_link,0.0473294462747,-0.227030922124,-0.180583440801,-0.95582776757,1.0,0.0,0.0,0.0,1.0,0.0,0.0,0.0,1.0,0.0239038560539,0.136106073856,0.0415391512215,1.21846967915e-07,0.0,0.0,0.0,1.21846967915e-07,0.0,0.0,0.0,1.21846967915e-07,-2.76635169983,-0.412417978048,9.70687580109,9e-08,0.0,0.0,0.0,9e-08,0.0,0.0,0.0,9e-08
3105250000000,1615,3105250000000,base_link,0.047375080775,-0.228330467514,-0.180819505299,-0.955471163084,1.0,0.0,0.0,0.0,1.0,0.0,0.0,0.0,1.0,0.0223125368357,0.163331732154,0.0374708846211,1.21846967915e-07,0.0,0.0,0.0,1.21846967915e-07,0.0,0.0,0.0,1.21846967915e-07,-2.82089233398,-0.333787411451,9.62480068207,9e-08,0.0,0.0,0.0,9e-08,0.0,0.0,0.0,9e-08
3105270000000,1616,3105266000000,base_link,0.0473890735287,-0.230065358239,-0.181118621483,-0.954997558948,1.0,0.0,0.0,0.0,1.0,0.0,0.0,0.0,1.0,0.0282878112048,0.173071324825,0.040042322129,1.21846967915e-07,0.0,0.0,0.0,1.21846967915e-07,0.0,0.0,0.0,1.21846967915e-07,-2.83566379547,-0.304402172565,9.62907981873,9e-08,0.0,0.0,0.0,9e-08,0.0,0.0,0.0,9e-08
3105290000000,1617,3105290000000,base_link,0.0473978189997,-0.231784507117,-0.181335171991,-0.954540181348,1.0,0.0,0.0,0.0,1.0,0.0,0.0,0.0,1.0,0.0320479534566,0.165131092072,0.0291797183454,1.21846967915e-07,0.0,0.0,0.0,1.21846967915e-07,0.0,0.0,0.0,1.21846967915e-07,-2.79220104218,-0.317390948534,9.66173362732,9e-08,0.0,0.0,0.0,9e-08,0.0,0.0,0.0,9e-08
3105310000000,1618,3105310000000,base_link,0.0473482226958,-0.233788368492,-0.181577474223,-0.954007824504,1.0,0.0,0.0,0.0,1.0,0.0,0.0,0.0,1.0,0.0327559150755,0.160634547472,0.0310579035431,1.21846967915e-07,0.0,0.0,0.0,1.21846967915e-07,0.0,0.0,0.0,1.21846967915e-07,-2.97653102875,-0.379171341658,9.64353656769,9e-08,0.0,0.0,0.0,9e-08,0.0,0.0,0.0,9e-08
3105330000000,1619,3105330000000,base_link,0.0473025144385,-0.235205767008,-0.181685328008,-0.953641104775,1.0,0.0,0.0,0.0,1.0,0.0,0.0,0.0,1.0,0.0385955870152,0.174197122455,0.0256010852754,1.21846967915e-07,0.0,0.0,0.0,1.21846967915e-07,0.0,0.0,0.0,1.21846967915e-07,-2.91286492348,-0.404778033495,9.62307262421,9e-08,0.0,0.0,0.0,9e-08,0.0,0.0,0.0,9e-08
3105346000000,1620,3105346000000,base_link,0.0472395049,-0.236978463456,-0.181862176185,-0.953171504589,1.0,0.0,0.0,0.0,1.0,0.0,0.0,0.0,1.0,0.0353931188583,0.171385616064,0.0294488668442,1.21846967915e-07,0.0,0.0,0.0,1.21846967915e-07,0.0,0.0,0.0,1.21846967915e-07,-2.98099732399,-0.363429754972,9.55800437927,9e-08,0.0,0.0,0.0,9e-08,0.0,0.0,0.0,9e-08
3105370000000,1621,3105370000000,base_link,0.0472430136252,-0.239080569136,-0.182005854791,-0.952618748671,1.0,0.0,0.0,0.0,1.0,0.0,0.0,0.0,1.0,0.0293737575412,0.170685037971,0.020328367129,1.21846967915e-07,0.0,0.0,0.0,1.21846967915e-07,0.0,0.0,0.0,1.21846967915e-07,-2.92133498192,-0.38741543889,9.49453449249,9e-08,0.0,0.0,0.0,9e-08,0.0,0.0,0.0,9e-08
3105390000000,1622,3105386000000,base_link,0.0472799658746,-0.240755326845,-0.182112612759,-0.952174647328,1.0,0.0,0.0,0.0,1.0,0.0,0.0,0.0,1.0,0.0261848121881,0.163182377815,0.0212310254574,1.21846967915e-07,0.0,0.0,0.0,1.21846967915e-07,0.0,0.0,0.0,1.21846967915e-07,-3.00268292427,-0.322514057159,9.56581115723,9e-08,0.0,0.0,0.0,9e-08,0.0,0.0,0.0,9e-08
3105410000000,1623,3105410000000,base_link,0.0473722674728,-0.242416376292,-0.182180384891,-0.95173556146,1.0,0.0,0.0,0.0,1.0,0.0,0.0,0.0,1.0,0.0235619470477,0.164543479681,0.0161492601037,1.21846967915e-07,0.0,0.0,0.0,1.21846967915e-07,0.0,0.0,0.0,1.21846967915e-07,-3.05861926079,-0.289851665497,9.49001598358,9e-08,0.0,0.0,0.0,9e-08,0.0,0.0,0.0,9e-08
3105430000000,1624,3105430000000,base_link,0.0474880132556,-0.243686777136,-0.182241034206,-0.951393708372,1.0,0.0,0.0,0.0,1.0,0.0,0.0,0.0,1.0,0.0181603506207,0.158242285252,0.0145754897967,1.21846967915e-07,0.0,0.0,0.0,1.21846967915e-07,0.0,0.0,0.0,1.21846967915e-07,-3.11932682991,-0.353098213673,9.63159275055,9e-08,0.0,0.0,0.0,9e-08,0.0,0.0,0.0,9e-08
3105446000000,1625,3105446000000,base_link,0.0476559052266,-0.245539847625,-0.182357949564,-0.950886260316,1.0,0.0,0.0,0.0,1.0,0.0,0.0,0.0,1.0,0.0184430368245,0.152648434043,0.0168296266347,1.21846967915e-07,0.0,0.0,0.0,1.21846967915e-07,0.0,0.0,0.0,1.21846967915e-07,-3.08641552925,-0.349046051502,9.61166954041,9e-08,0.0,0.0,0.0,9e-08,0.0,0.0,0.0,9e-08
3105470000000,1626,3105470000000,base_link,0.0478279802724,-0.246760725922,-0.182376662765,-0.95055802066,1.0,0.0,0.0,0.0,1.0,0.0,0.0,0.0,1.0,0.011787276715,0.152607113123,0.004885496106,1.21846967915e-07,0.0,0.0,0.0,1.21846967915e-07,0.0,0.0,0.0,1.21846967915e-07,-3.0624370575,-0.371647387743,9.56213283539,9e-08,0.0,0.0,0.0,9e-08,0.0,0.0,0.0,9e-08
3105490000000,1627,3105490000000,base_link,0.048055109639,-0.248299739169,-0.182410127362,-0.950139249573,1.0,0.0,0.0,0.0,1.0,0.0,0.0,0.0,1.0,0.0107200089842,0.154138743877,0.00788030214608,1.21846967915e-07,0.0,0.0,0.0,1.21846967915e-07,0.0,0.0,0.0,1.21846967915e-07,-3.14674592018,-0.424866497517,9.54947471619,9e-08,0.0,0.0,0.0,9e-08,0.0,0.0,0.0,9e-08
3105510000000,1628,3105510000000,base_link,0.0481639960221,-0.249870931535,-0.182416913005,-0.949720436339,1.0,0.0,0.0,0.0,1.0,0.0,0.0,0.0,1.0,0.0226336792111,0.155709922314,0.00661197397858,1.21846967915e-07,0.0,0.0,0.0,1.21846967915e-07,0.0,0.0,0.0,1.21846967915e-07,-3.14121866226,-0.305004417896,9.55915546417,9e-08,0.0,0.0,0.0,9e-08,0.0,0.0,0.0,9e-08
3105530000000,1629,3105530000000,base_link,0.0481830147875,-0.25138959839,-0.182409115838,-0.949320083425,1.0,0.0,0.0,0.0,1.0,0.0,0.0,0.0,1.0,0.0299838148057,0.143784582615,0.0134362392128,1.21846967915e-07,0.0,0.0,0.0,1.21846967915e-07,0.0,0.0,0.0,1.21846967915e-07,-3.20184445381,-0.326112836599,9.5299911499,9e-08,0.0,0.0,0.0,9e-08,0.0,0.0,0.0,9e-08
3105550000000,1630,3105550000000,base_link,0.0482050997361,-0.252844486527,-0.182443507666,-0.948925841804,1.0,0.0,0.0,0.0,1.0,0.0,0.0,0.0,1.0,0.0241711251438,0.14639082551,0.0091857444495,1.21846967915e-07,0.0,0.0,0.0,1.21846967915e-07,0.0,0.0,0.0,1.21846967915e-07,-3.09555912018,-0.347562909126,9.44406509399,9e-08,0.0,0.0,0.0,9e-08,0.0,0.0,0.0,9e-08
3105570000000,1631,3105570000000,base_link,0.0483949291418,-0.254300070088,-0.182420664074,-0.948531600183,1.0,0.0,0.0,0.0,1.0,0.0,0.0,0.0,1.0,0.00917124934494,0.143955588341,0.00057947053574,1.21846967915e-07,0.0,0.0,0.0,1.21846967915e-07,0.0,0.0,0.0,1.21846967915e-07,-3.17791771889,-0.333135396242,9.52892875671,9e-08,0.0,0.0,0.0,9e-08,0.0,0.0,0.0,9e-08
3105590000000,1632,3105590000000,base_link,0.0485937042161,-0.255646756728,-0.182418430291,-0.948159738539,1.0,0.0,0.0,0.0,1.0,0.0,0.0,0.0,1.0,0.0114000719041,0.132214322686,0.00407250365242,1.21846967915e-07,0.0,0.0,0.0,1.21846967915e-07,0.0,0.0,0.0,1.21846967915e-07,-3.34966063499,-0.385224670172,9.51288604736,9e-08,0.0,0.0,0.0,9e-08,0.0,0.0,0.0,9e-08
3105606000000,1633,3105606000000,base_link,0.0487020953738,-0.257252646487,-0.18235251262,-0.947732538082,1.0,0.0,0.0,0.0,1.0,0.0,0.0,0.0,1.0,0.02511661686,0.130751430988,0.00157433853019,1.21846967915e-07,0.0,0.0,0.0,1.21846967915e-07,0.0,0.0,0.0,1.21846967915e-07,-3.2655339241,-0.386798143387,9.52413654327,9e-08,0.0,0.0,0.0,9e-08,0.0,0.0,0.0,9e-08
3105630000000,1634,3105630000000,base_link,0.0488533182662,-0.25859076678,-0.182320354575,-0.947366576997,1.0,0.0,0.0,0.0,1.0,0.0,0.0,0.0,1.0,0.0147280059755,0.135335594416,-0.000586393522099,1.21846967915e-07,0.0,0.0,0.0,1.21846967915e-07,0.0,0.0,0.0,1.21846967915e-07,-3.38245391846,-0.277707755566,9.52066993713,9e-08,0.0,0.0,0.0,9e-08,0.0,0.0,0.0,9e-08
3105646000000,1635,3105650000000,base_link,0.0491895974338,-0.259831833418,-0.182349183019,-0.947004029806,1.0,0.0,0.0,0.0,1.0,0.0,0.0,0.0,1.0,-0.00605145236477,0.126545593143,-0.00107862171717,1.21846967915e-07,0.0,0.0,0.0,1.21846967915e-07,0.0,0.0,0.0,1.21846967915e-07,-3.33569979668,-0.37746489048,9.39203739166,9e-08,0.0,0.0,0.0,9e-08,0.0,0.0,0.0,9e-08
3105666000000,1636,3105670000000,base_link,0.049590856505,-0.260980608994,-0.182367685486,-0.946663525417,1.0,0.0,0.0,0.0,1.0,0.0,0.0,0.0,1.0,-0.0116032883525,0.117609515786,-0.00506888469681,1.21846967915e-07,0.0,0.0,0.0,1.21846967915e-07,0.0,0.0,0.0,1.21846967915e-07,-3.19151639938,-0.325856894255,9.4076499939,9e-08,0.0,0.0,0.0,9e-08,0.0,0.0,0.0,9e-08
3105690000000,1637,3105690000000,base_link,0.0499361867083,-0.262058999334,-0.182376409883,-0.946345696032,1.0,0.0,0.0,0.0,1.0,0.0,0.0,0.0,1.0,-0.00639531109482,0.111403733492,-0.00401764409617,1.21846967915e-07,0.0,0.0,0.0,1.21846967915e-07,0.0,0.0,0.0,1.21846967915e-07,-3.37504458427,-0.344583153725,9.38742160797,9e-08,0.0,0.0,0.0,9e-08,0.0,0.0,0.0,9e-08
3105710000000,1638,3105710000000,base_link,0.0502105626921,-0.263029430521,-0.182393057889,-0.946058802434,1.0,0.0,0.0,0.0,1.0,0.0,0.0,0.0,1.0,-0.00218177028,0.0976227372885,-0.00182719365694,1.21846967915e-07,0.0,0.0,0.0,1.21846967915e-07,0.0,0.0,0.0,1.21846967915e-07,-3.36305999756,-0.27229192853,9.30031108856,9e-08,0.0,0.0,0.0,9e-08,0.0,0.0,0.0,9e-08
3105730000000,1639,3105730000000,base_link,0.0505536801858,-0.263795892034,-0.182430231409,-0.945819829803,1.0,0.0,0.0,0.0,1.0,0.0,0.0,0.0,1.0,-0.0156592261046,0.0765725448728,-0.00228833477013,1.21846967915e-07,0.0,0.0,0.0,1.21846967915e-07,0.0,0.0,0.0,1.21846967915e-07,-3.43047976494,-0.386249572039,9.3155670166,9e-08,0.0,0.0,0.0,9e-08,0.0,0.0,0.0,9e-08
3105750000000,1640,3105750000000,base_link,0.0509210637276,-0.264247400686,-0.18244586789,-0.945671177869,1.0,0.0,0.0,0.0,1.0,0.0,0.0,0.0,1.0,-0.0200591683388,0.0423735380173,-0.0104377502576,1.21846967915e-07,0.0,0.0,0.0,1.21846967915e-07,0.0,0.0,0.0,1.21846967915e-07,-3.49041152,-0.358248800039,9.28999137878,9e-08,0.0,0.0,0.0,9e-08,0.0,0.0,0.0,9e-08
3105770000000,1641,3105770000000,base_link,0.0511929214372,-0.26443620803,-0.182504072688,-0.945592405409,1.0,0.0,0.0,0.0,1.0,0.0,0.0,0.0,1.0,-0.0236397217959,0.0195943433791,-0.0052610472776,1.21846967915e-07,0.0,0.0,0.0,1.21846967915e-07,0.0,0.0,0.0,1.21846967915e-07,-3.45720529556,-0.350974619389,9.21326828003,9e-08,0.0,0.0,0.0,9e-08,0.0,0.0,0.0,9e-08
3105790000000,1642,3105786000000,base_link,0.0516270129034,-0.264423521829,-0.182557093423,-0.945562143972,1.0,0.0,0.0,0.0,1.0,0.0,0.0,0.0,1.0,-0.0303576570004,-0.00656467489898,-0.0125624090433,1.21846967915e-07,0.0,0.0,0.0,1.21846967915e-07,0.0,0.0,0.0,1.21846967915e-07,-3.5187022686,-0.292871296406,9.21610069275,9e-08,0.0,0.0,0.0,9e-08,0.0,0.0,0.0,9e-08
3105810000000,1643,3105810000000,base_link,0.0519415969807,-0.264264796797,-0.182584573168,-0.945584060333,1.0,0.0,0.0,0.0,1.0,0.0,0.0,0.0,1.0,-0.0387880653143,-0.0229647606611,-0.0148114068434,1.21846967915e-07,0.0,0.0,0.0,1.21846967915e-07,0.0,0.0,0.0,1.21846967915e-07,-3.51005268097,-0.331429600716,9.22860240936,9e-08,0.0,0.0,0.0,9e-08,0.0,0.0,0.0,9e-08
3105830000000,1644,3105830000000,base_link,0.0524659353863,-0.2638814396,-0.182643241581,-0.945650736647,1.0,0.0,0.0,0.0,1.0,0.0,0.0,0.0,1.0,-0.0580164194107,-0.0408732183278,-0.0153945349157,1.21846967915e-07,0.0,0.0,0.0,1.21846967915e-07,0.0,0.0,0.0,1.21846967915e-07,-3.60088610649,-0.347499966621,9.28742313385,9e-08,0.0,0.0,0.0,9e-08,0.0,0.0,0.0,9e-08
3105850000000,1645,3105850000000,base_link,0.0531116145688,-0.263241871711,-0.182804453277,-0.945761793593,1.0,0.0,0.0,0.0,1.0,0.0,0.0,0.0,1.0,-0.0717531070113,-0.0660400763154,-0.017836753279,1.21846967915e-07,0.0,0.0,0.0,1.21846967915e-07,0.0,0.0,0.0,1.21846967915e-07,-3.67869114876,-0.332533180714,9.35305595398,9e-08,0.0,0.0,0.0,9e-08,0.0,0.0,0.0,9e-08
3105870000000,1646,3105870000000,base_link,0.0538674550766,-0.262346714795,-0.183008823345,-0.945928400085,1.0,0.0,0.0,0.0,1.0,0.0,0.0,0.0,1.0,-0.0849444046617,-0.0860878452659,-0.0179609432817,1.21846967915e-07,0.0,0.0,0.0,1.21846967915e-07,0.0,0.0,0.0,1.21846967915e-07,-3.62002706528,-0.29226899147,9.16763877869,9e-08,0.0,0.0,0.0,9e-08,0.0,0.0,0.0,9e-08
3105890000000,1647,3105890000000,base_link,0.0548754180321,-0.260957006759,-0.183287076839,-0.946200921608,1.0,0.0,0.0,0.0,1.0,0.0,0.0,0.0,1.0,-0.0982646644115,-0.10774935782,-0.0189618449658,1.21846967915e-07,0.0,0.0,0.0,1.21846967915e-07,0.0,0.0,0.0,1.21846967915e-07,-3.69107031822,-0.386623382568,9.25206565857,9e-08,0.0,0.0,0.0,9e-08,0.0,0.0,0.0,9e-08
3105910000000,1648,3105910000000,base_link,0.0555184314264,-0.259925378348,-0.183476779804,-0.946410517885,1.0,0.0,0.0,0.0,1.0,0.0,0.0,0.0,1.0,-0.0942602157593,-0.123127751052,-0.0175542198122,1.21846967915e-07,0.0,0.0,0.0,1.21846967915e-07,0.0,0.0,0.0,1.21846967915e-07,-3.66939806938,-0.266947954893,9.22027397156,9e-08,0.0,0.0,0.0,9e-08,0.0,0.0,0.0,9e-08
3105930000000,1649,3105930000000,base_link,0.0561591794276,-0.258538926156,-0.183653080072,-0.946718147732,1.0,0.0,0.0,0.0,1.0,0.0,0.0,0.0,1.0,-0.0773733854294,-0.136844530702,-0.0204435102642,1.21846967915e-07,0.0,0.0,0.0,1.21846967915e-07,0.0,0.0,0.0,1.21846967915e-07,-3.80486989021,-0.192523479462,9.1792755127,9e-08,0.0,0.0,0.0,9e-08,0.0,0.0,0.0,9e-08
3105950000000,1650,3105950000000,base_link,0.0568909646216,-0.256720679501,-0.183941828131,-0.94711310585,1.0,0.0,0.0,0.0,1.0,0.0,0.0,0.0,1.0,-0.0849637463689,-0.146928489208,-0.0106456689537,1.21846967915e-07,0.0,0.0,0.0,1.21846967915e-07,0.0,0.0,0.0,1.21846967915e-07,-3.67124629021,-0.278377711773,9.15401268005,9e-08,0.0,0.0,0.0,9e-08,0.0,0.0,0.0,9e-08
3105970000000,1651,3105970000000,base_link,0.0575940583485,-0.254946802941,-0.184160612422,-0.94750722103,1.0,0.0,0.0,0.0,1.0,0.0,0.0,0.0,1.0,-0.0971993580461,-0.173866063356,-0.0198310967535,1.21846967915e-07,0.0,0.0,0.0,1.21846967915e-07,0.0,0.0,0.0,1.21846967915e-07,-3.7913544178,-0.260026931763,9.20011329651,9e-08,0.0,0.0,0.0,9e-08,0.0,0.0,0.0,9e-08
3105990000000,1652,3105990000000,base_link,0.0581770124837,-0.253446585869,-0.18437341186,-0.947832636848,1.0,0.0,0.0,0.0,1.0,0.0,0.0,0.0,1.0,-0.102087274194,-0.182555899024,-0.0181450117379,1.21846967915e-07,0.0,0.0,0.0,1.21846967915e-07,0.0,0.0,0.0,1.21846967915e-07,-3.88189411163,-0.318801999092,9.18904876709,9e-08,0.0,0.0,0.0,9e-08,0.0,0.0,0.0,9e-08
3106010000000,1653,3106010000000,base_link,0.0588635951826,-0.251104622474,-0.184610403589,-0.948367438208,1.0,0.0,0.0,0.0,1.0,0.0,0.0,0.0,1.0,-0.0818453878164,-0.196502119303,-0.0222865827382,1.21846967915e-07,0.0,0.0,0.0,1.21846967915e-07,0.0,0.0,0.0,1.21846967915e-07,-3.98347592354,-0.245712265372,9.19221019745,9e-08,0.0,0.0,0.0,9e-08,0.0,0.0,0.0,9e-08
3106030000000,1654,3106030000000,base_link,0.0592284077666,-0.249035138455,-0.184805922819,-0.948852084819,1.0,0.0,0.0,0.0,1.0,0.0,0.0,0.0,1.0,-0.0655723959208,-0.209648549557,-0.0167361423373,1.21846967915e-07,0.0,0.0,0.0,1.21846967915e-07,0.0,0.0,0.0,1.21846967915e-07,-3.9483127594,-0.250401139259,9.01140975952,9e-08,0.0,0.0,0.0,9e-08,0.0,0.0,0.0,9e-08
3106050000000,1655,3106050000000,base_link,0.0594831117089,-0.247295579966,-0.185020661012,-0.949249234573,1.0,0.0,0.0,0.0,1.0,0.0,0.0,0.0,1.0,-0.0633878484368,-0.221108794212,-0.0122865317389,1.21846967915e-07,0.0,0.0,0.0,1.21846967915e-07,0.0,0.0,0.0,1.21846967915e-07,-4.04734134674,-0.276898652315,8.91685390472,9e-08,0.0,0.0,0.0,9e-08,0.0,0.0,0.0,9e-08
3106070000000,1656,3106070000000,base_link,0.0597100303413,-0.24504040747,-0.185266419286,-0.949771729054,1.0,0.0,0.0,0.0,1.0,0.0,0.0,0.0,1.0,-0.0534445606172,-0.228520452976,-0.0140447821468,1.21846967915e-07,0.0,0.0,0.0,1.21846967915e-07,0.0,0.0,0.0,1.21846967915e-07,-4.00351047516,-0.224781066179,9.04384040833,9e-08,0.0,0.0,0.0,9e-08,0.0,0.0,0.0,9e-08
3106090000000,1657,3106090000000,base_link,0.0598270721396,-0.242826496738,-0.185464973089,-0.950294139241,1.0,0.0,0.0,0.0,1.0,0.0,0.0,0.0,1.0,-0.0390290394425,-0.229055777192,-0.0162114519626,1.21846967915e-07,0.0,0.0,0.0,1.21846967915e-07,0.0,0.0,0.0,1.21846967915e-07,-4.06954813004,-0.263920933008,9.01083278656,9e-08,0.0,0.0,0.0,9e-08,0.0,0.0,0.0,9e-08
3106110000000,1658,3106110000000,base_link,0.0597388482489,-0.240596180345,-0.185605153507,-0.950839435167,1.0,0.0,0.0,0.0,1.0,0.0,0.0,0.0,1.0,-0.0163892041892,-0.237070918083,-0.0152418725193,1.21846967915e-07,0.0,0.0,0.0,1.21846967915e-07,0.0,0.0,0.0,1.21846967915e-07,-4.13595914841,-0.198957085609,9.00146198273,9e-08,0.0,0.0,0.0,9e-08,0.0,0.0,0.0,9e-08
3106130000000,1659,3106130000000,base_link,0.059248743621,-0.237895831761,-0.185745628953,-0.951521834792,1.0,0.0,0.0,0.0,1.0,0.0,0.0,0.0,1.0,0.0125484671444,-0.24020704627,-0.00849774386734,1.21846967915e-07,0.0,0.0,0.0,1.21846967915e-07,0.0,0.0,0.0,1.21846967915e-07,-4.10647678375,-0.195483773947,9.00779533386,9e-08,0.0,0.0,0.0,9e-08,0.0,0.0,0.0,9e-08
3106150000000,1660,3106150000000,base_link,0.0586506060837,-0.236139751708,-0.185813274645,-0.951983047755,1.0,0.0,0.0,0.0,1.0,0.0,0.0,0.0,1.0,0.0462902411819,-0.241242185235,-0.00351530732587,1.21846967915e-07,0.0,0.0,0.0,1.21846967915e-07,0.0,0.0,0.0,1.21846967915e-07,-4.13813781738,-0.179966688156,8.94436645508,9e-08,0.0,0.0,0.0,9e-08,0.0,0.0,0.0,9e-08
3106166000000,1661,3106170000000,base_link,0.0574615117783,-0.233645358967,-0.185868065548,-0.952660010436,1.0,0.0,0.0,0.0,1.0,0.0,0.0,0.0,1.0,0.068221360445,-0.234194099903,-0.000349286419805,1.21846967915e-07,0.0,0.0,0.0,1.21846967915e-07,0.0,0.0,0.0,1.21846967915e-07,-4.19185352325,-0.144683301449,8.99462985992,9e-08,0.0,0.0,0.0,9e-08,0.0,0.0,0.0,9e-08
3106190000000,1662,3106190000000,base_link,0.0565762962506,-0.232076363506,-0.18585613799,-0.953098801275,1.0,0.0,0.0,0.0,1.0,0.0,0.0,0.0,1.0,0.0795615613461,-0.224936574697,-0.00358591671102,1.21846967915e-07,0.0,0.0,0.0,1.21846967915e-07,0.0,0.0,0.0,1.21846967915e-07,-4.22222948074,-0.190041124821,9.04808712006,9e-08,0.0,0.0,0.0,9e-08,0.0,0.0,0.0,9e-08
3106210000000,1663,3106210000000,base_link,0.0554937333732,-0.230200618013,-0.185814244023,-0.953625384001,1.0,0.0,0.0,0.0,1.0,0.0,0.0,0.0,1.0,0.0772318020463,-0.212137848139,-0.00735490582883,1.21846967915e-07,0.0,0.0,0.0,1.21846967915e-07,0.0,0.0,0.0,1.21846967915e-07,-4.2659945488,-0.304981887341,8.96871566772,9e-08,0.0,0.0,0.0,9e-08,0.0,0.0,0.0,9e-08
3106230000000,1664,3106230000000,base_link,0.0545542748516,-0.228453594264,-0.185733532808,-0.954115256821,1.0,0.0,0.0,0.0,1.0,0.0,0.0,0.0,1.0,0.0643189325929,-0.19292576611,-0.0101849362254,1.21846967915e-07,0.0,0.0,0.0,1.21846967915e-07,0.0,0.0,0.0,1.21846967915e-07,-4.33967542648,-0.201939493418,9.0304479599,9e-08,0.0,0.0,0.0,9e-08,0.0,0.0,0.0,9e-08
3106250000000,1665,3106250000000,base_link,0.053614521302,-0.226916883288,-0.185705884475,-0.954540518522,1.0,0.0,0.0,0.0,1.0,0.0,0.0,0.0,1.0,0.0721920728683,-0.171245574951,-0.00369418412447,1.21846967915e-07,0.0,0.0,0.0,1.21846967915e-07,0.0,0.0,0.0,1.21846967915e-07,-4.2866859436,-0.263209939003,9.00210380554,9e-08,0.0,0.0,0.0,9e-08,0.0,0.0,0.0,9e-08
3106266000000,1666,3106266000000,base_link,0.0528155171529,-0.225606521963,-0.185663358305,-0.954903866503,1.0,0.0,0.0,0.0,1.0,0.0,0.0,0.0,1.0,0.0627216771245,-0.14664824307,-0.00994012504816,1.21846967915e-07,0.0,0.0,0.0,1.21846967915e-07,0.0,0.0,0.0,1.21846967915e-07,-4.30065107346,-0.235189720988,8.9324092865,9e-08,0.0,0.0,0.0,9e-08,0.0,0.0,0.0,9e-08
3106290000000,1667,3106290000000,base_link,0.0520905281383,-0.224461075988,-0.185644350076,-0.955217312616,1.0,0.0,0.0,0.0,1.0,0.0,0.0,0.0,1.0,0.057767175138,-0.132395431399,-0.0057422965765,1.21846967915e-07,0.0,0.0,0.0,1.21846967915e-07,0.0,0.0,0.0,1.21846967915e-07,-4.3397808075,-0.180492609739,9.0256986618,9e-08,0.0,0.0,0.0,9e-08,0.0,0.0,0.0,9e-08
3106310000000,1668,3106310000000,base_link,0.051217066313,-0.223412957622,-0.185493253625,-0.955539525273,1.0,0.0,0.0,0.0,1.0,0.0,0.0,0.0,1.0,0.0645531713963,-0.100568249822,-0.0127065628767,1.21846967915e-07,0.0,0.0,0.0,1.21846967915e-07,0.0,0.0,0.0,1.21846967915e-07,-4.28921175003,-0.229627922177,8.92515659332,9e-08,0.0,0.0,0.0,9e-08,0.0,0.0,0.0,9e-08
3106330000000,1669,3106330000000,base_link,0.050618459892,-0.222891321883,-0.185360069583,-0.955719070847,1.0,0.0,0.0,0.0,1.0,0.0,0.0,0.0,1.0,0.0728490948677,-0.079753562808,-0.0156092140824,1.21846967915e-07,0.0,0.0,0.0,1.21846967915e-07,0.0,0.0,0.0,1.21846967915e-07,-4.34300851822,-0.230853632092,8.91611480713,9e-08,0.0,0.0,0.0,9e-08,0.0,0.0,0.0,9e-08
3106350000000,1670,3106350000000,base_link,0.0496965818745,-0.222371988416,-0.185134457503,-0.955932123167,1.0,0.0,0.0,0.0,1.0,0.0,0.0,0.0,1.0,0.0783624053001,-0.0582854226232,-0.0133392531425,1.21846967915e-07,0.0,0.0,0.0,1.21846967915e-07,0.0,0.0,0.0,1.21846967915e-07,-4.35250282288,-0.257190138102,8.90289497375,9e-08,0.0,0.0,0.0,9e-08,0.0,0.0,0.0,9e-08
3106370000000,1671,3106370000000,base_link,0.0491526662578,-0.222173150121,-0.184991916862,-0.956034034246,1.0,0.0,0.0,0.0,1.0,0.0,0.0,0.0,1.0,0.0713111460209,-0.0427524298429,-0.01223733183,1.21846967915e-07,0.0,0.0,0.0,1.21846967915e-07,0.0,0.0,0.0,1.21846967915e-07,-4.34974002838,-0.266254067421,8.85968589783,9e-08,0.0,0.0,0.0,9e-08,0.0,0.0,0.0,9e-08
